studyid,siteid,sitegr1,usubjid,trtsdt,trtedt,trtp,trtpn,age,agegr1,agegr1n,race,racen,sex,ittfl,efffl,comp24fl,avisit,avisitn,visit,visitnum,ady,adt,paramcd,param,paramn,aval,anl01fl,dtype,awrange,awtarget,awtdiff,awlo,awhi,awu,qsseq
CDISCPILOT01,701,701,01-701-1015,2014-01-02,2014-07-02,Placebo,0,63,<65,1,WHITE,1,F,Y,Y,Y,Week 8,8,WEEK 8,8,63,2014-03-05,CIBICVAL,CIBIC Score,1,4,Y,,2-84,56,7,2,84,DAYS,6001
CDISCPILOT01,701,701,01-701-1015,2014-01-02,2014-07-02,Placebo,0,63,<65,1,WHITE,1,F,Y,Y,Y,Week 16,16,WEEK 16,10,126,2014-05-07,CIBICVAL,CIBIC Score,1,4,Y,,85-140,112,14,85,140,DAYS,6002
CDISCPILOT01,701,701,01-701-1015,2014-01-02,2014-07-02,Placebo,0,63,<65,1,WHITE,1,F,Y,Y,Y,Week 24,24,WEEK 24,12,168,2014-06-18,CIBICVAL,CIBIC Score,1,4,Y,,>140,168,0,141,NA,DAYS,6003
CDISCPILOT01,701,701,01-701-1023,2012-08-05,2012-09-01,Placebo,0,64,<65,1,WHITE,1,M,Y,Y,N,Week 8,8,WEEK 4,5,29,2012-09-02,CIBICVAL,CIBIC Score,1,3,Y,,2-84,56,27,2,84,DAYS,6001
CDISCPILOT01,701,701,01-701-1023,2012-08-05,2012-09-01,Placebo,0,64,<65,1,WHITE,1,M,Y,Y,N,Week 16,16,WEEK 4,5,29,2012-09-02,CIBICVAL,CIBIC Score,1,3,Y,LOCF,85-140,112,83,85,140,DAYS,6001
CDISCPILOT01,701,701,01-701-1023,2012-08-05,2012-09-01,Placebo,0,64,<65,1,WHITE,1,M,Y,Y,N,Week 24,24,RETRIEVAL,201,198,2013-02-18,CIBICVAL,CIBIC Score,1,5,Y,,>140,168,30,141,NA,DAYS,6002
CDISCPILOT01,701,701,01-701-1028,2013-07-19,2014-01-14,Xanomeline High Dose,81,71,65-80,2,WHITE,1,M,Y,Y,Y,Week 8,8,WEEK 8,8,54,2013-09-10,CIBICVAL,CIBIC Score,1,4,Y,,2-84,56,2,2,84,DAYS,6001
CDISCPILOT01,701,701,01-701-1028,2013-07-19,2014-01-14,Xanomeline High Dose,81,71,65-80,2,WHITE,1,M,Y,Y,Y,Week 16,16,WEEK 16,10,111,2013-11-06,CIBICVAL,CIBIC Score,1,4,Y,,85-140,112,1,85,140,DAYS,6002
CDISCPILOT01,701,701,01-701-1028,2013-07-19,2014-01-14,Xanomeline High Dose,81,71,65-80,2,WHITE,1,M,Y,Y,Y,Week 24,24,WEEK 24,12,172,2014-01-06,CIBICVAL,CIBIC Score,1,4,Y,,>140,168,4,141,NA,DAYS,6003
CDISCPILOT01,701,701,01-701-1033,2014-03-18,2014-03-31,Xanomeline Low Dose,54,74,65-80,2,WHITE,1,M,Y,Y,N,Week 8,8,WEEK 4,5,28,2014-04-14,CIBICVAL,CIBIC Score,1,4,Y,,2-84,56,28,2,84,DAYS,6001
CDISCPILOT01,701,701,01-701-1033,2014-03-18,2014-03-31,Xanomeline Low Dose,54,74,65-80,2,WHITE,1,M,Y,Y,N,Week 16,16,WEEK 4,5,28,2014-04-14,CIBICVAL,CIBIC Score,1,4,Y,LOCF,85-140,112,84,85,140,DAYS,6001
CDISCPILOT01,701,701,01-701-1033,2014-03-18,2014-03-31,Xanomeline Low Dose,54,74,65-80,2,WHITE,1,M,Y,Y,N,Week 24,24,RETRIEVAL,201,182,2014-09-15,CIBICVAL,CIBIC Score,1,4,Y,,>140,168,14,141,NA,DAYS,6002
CDISCPILOT01,701,701,01-701-1034,2014-07-01,2014-12-30,Xanomeline High Dose,81,77,65-80,2,WHITE,1,F,Y,Y,Y,Week 8,8,WEEK 8,8,57,2014-08-26,CIBICVAL,CIBIC Score,1,4,Y,,2-84,56,1,2,84,DAYS,6001
CDISCPILOT01,701,701,01-701-1034,2014-07-01,2014-12-30,Xanomeline High Dose,81,77,65-80,2,WHITE,1,F,Y,Y,Y,Week 16,16,WEEK 16,10,113,2014-10-21,CIBICVAL,CIBIC Score,1,3,Y,,85-140,112,1,85,140,DAYS,6002
CDISCPILOT01,701,701,01-701-1034,2014-07-01,2014-12-30,Xanomeline High Dose,81,77,65-80,2,WHITE,1,F,Y,Y,Y,Week 24,24,WEEK 24,12,170,2014-12-17,CIBICVAL,CIBIC Score,1,4,Y,,>140,168,2,141,NA,DAYS,6003
CDISCPILOT01,701,701,01-701-1047,2013-02-12,2013-03-09,Placebo,0,85,>80,3,WHITE,1,F,Y,Y,N,Week 8,8,AMBUL ECG REMOVAL,6,46,2013-03-29,CIBICVAL,CIBIC Score,1,4,Y,,2-84,56,10,2,84,DAYS,6001
CDISCPILOT01,701,701,01-701-1047,2013-02-12,2013-03-09,Placebo,0,85,>80,3,WHITE,1,F,Y,Y,N,Week 16,16,AMBUL ECG REMOVAL,6,46,2013-03-29,CIBICVAL,CIBIC Score,1,4,Y,LOCF,85-140,112,66,85,140,DAYS,6001
CDISCPILOT01,701,701,01-701-1047,2013-02-12,2013-03-09,Placebo,0,85,>80,3,WHITE,1,F,Y,Y,N,Week 24,24,RETRIEVAL,201,167,2013-07-28,CIBICVAL,CIBIC Score,1,5,Y,,>140,168,1,141,NA,DAYS,6002
CDISCPILOT01,701,701,01-701-1097,2014-01-01,2014-07-09,Xanomeline Low Dose,54,68,65-80,2,WHITE,1,M,Y,Y,Y,Week 8,8,WEEK 8,8,57,2014-02-26,CIBICVAL,CIBIC Score,1,3,Y,,2-84,56,1,2,84,DAYS,6001
CDISCPILOT01,701,701,01-701-1097,2014-01-01,2014-07-09,Xanomeline Low Dose,54,68,65-80,2,WHITE,1,M,Y,Y,Y,Week 16,16,WEEK 16,10,113,2014-04-23,CIBICVAL,CIBIC Score,1,4,Y,,85-140,112,1,85,140,DAYS,6002
CDISCPILOT01,701,701,01-701-1097,2014-01-01,2014-07-09,Xanomeline Low Dose,54,68,65-80,2,WHITE,1,M,Y,Y,Y,Week 24,24,WEEK 24,12,169,2014-06-18,CIBICVAL,CIBIC Score,1,3,Y,,>140,168,1,141,NA,DAYS,6003
CDISCPILOT01,701,701,01-701-1111,2012-09-07,2012-09-16,Xanomeline Low Dose,54,81,>80,3,WHITE,1,F,Y,Y,N,Week 8,8,WEEK 2,4,11,2012-09-17,CIBICVAL,CIBIC Score,1,4,Y,,2-84,56,45,2,84,DAYS,6001
CDISCPILOT01,701,701,01-701-1111,2012-09-07,2012-09-16,Xanomeline Low Dose,54,81,>80,3,WHITE,1,F,Y,Y,N,Week 16,16,WEEK 2,4,11,2012-09-17,CIBICVAL,CIBIC Score,1,4,Y,LOCF,85-140,112,101,85,140,DAYS,6001
CDISCPILOT01,701,701,01-701-1111,2012-09-07,2012-09-16,Xanomeline Low Dose,54,81,>80,3,WHITE,1,F,Y,Y,N,Week 24,24,RETRIEVAL,201,169,2013-02-22,CIBICVAL,CIBIC Score,1,5,Y,,>140,168,1,141,NA,DAYS,6002
CDISCPILOT01,701,701,01-701-1115,2012-11-30,2013-01-23,Xanomeline Low Dose,54,84,>80,3,WHITE,1,M,Y,Y,N,Week 8,8,WEEK 8,8,55,2013-01-23,CIBICVAL,CIBIC Score,1,4,Y,,2-84,56,1,2,84,DAYS,6001
CDISCPILOT01,701,701,01-701-1115,2012-11-30,2013-01-23,Xanomeline Low Dose,54,84,>80,3,WHITE,1,M,Y,Y,N,Week 16,16,WEEK 8,8,55,2013-01-23,CIBICVAL,CIBIC Score,1,4,Y,LOCF,85-140,112,57,85,140,DAYS,6001
CDISCPILOT01,701,701,01-701-1115,2012-11-30,2013-01-23,Xanomeline Low Dose,54,84,>80,3,WHITE,1,M,Y,Y,N,Week 24,24,RETRIEVAL,201,172,2013-05-20,CIBICVAL,CIBIC Score,1,5,Y,,>140,168,4,141,NA,DAYS,6002
CDISCPILOT01,701,701,01-701-1118,2014-03-12,2014-09-09,Placebo,0,52,<65,1,WHITE,1,M,Y,Y,Y,Week 8,8,WEEK 8,8,58,2014-05-08,CIBICVAL,CIBIC Score,1,4,Y,,2-84,56,2,2,84,DAYS,6001
CDISCPILOT01,701,701,01-701-1118,2014-03-12,2014-09-09,Placebo,0,52,<65,1,WHITE,1,M,Y,Y,Y,Week 16,16,WEEK 16,10,113,2014-07-02,CIBICVAL,CIBIC Score,1,4,Y,,85-140,112,1,85,140,DAYS,6002
CDISCPILOT01,701,701,01-701-1118,2014-03-12,2014-09-09,Placebo,0,52,<65,1,WHITE,1,M,Y,Y,Y,Week 24,24,WEEK 24,12,169,2014-08-27,CIBICVAL,CIBIC Score,1,4,Y,,>140,168,1,141,NA,DAYS,6003
CDISCPILOT01,701,701,01-701-1130,2014-02-15,2014-08-16,Placebo,0,84,>80,3,WHITE,1,M,Y,Y,Y,Week 8,8,WEEK 8,8,57,2014-04-12,CIBICVAL,CIBIC Score,1,3,Y,,2-84,56,1,2,84,DAYS,6001
CDISCPILOT01,701,701,01-701-1130,2014-02-15,2014-08-16,Placebo,0,84,>80,3,WHITE,1,M,Y,Y,Y,Week 16,16,WEEK 16,10,113,2014-06-07,CIBICVAL,CIBIC Score,1,3,Y,,85-140,112,1,85,140,DAYS,6002
CDISCPILOT01,701,701,01-701-1130,2014-02-15,2014-08-16,Placebo,0,84,>80,3,WHITE,1,M,Y,Y,Y,Week 24,24,WEEK 24,12,169,2014-08-02,CIBICVAL,CIBIC Score,1,3,Y,,>140,168,1,141,NA,DAYS,6003
CDISCPILOT01,701,701,01-701-1133,2012-10-28,2013-04-28,Xanomeline High Dose,81,81,>80,3,WHITE,1,F,Y,Y,Y,Week 8,8,WEEK 8,8,58,2012-12-24,CIBICVAL,CIBIC Score,1,4,Y,,2-84,56,2,2,84,DAYS,6001
CDISCPILOT01,701,701,01-701-1133,2012-10-28,2013-04-28,Xanomeline High Dose,81,81,>80,3,WHITE,1,F,Y,Y,Y,Week 16,16,WEEK 16,10,114,2013-02-18,CIBICVAL,CIBIC Score,1,5,Y,,85-140,112,2,85,140,DAYS,6002
CDISCPILOT01,701,701,01-701-1133,2012-10-28,2013-04-28,Xanomeline High Dose,81,81,>80,3,WHITE,1,F,Y,Y,Y,Week 24,24,WEEK 24,12,173,2013-04-18,CIBICVAL,CIBIC Score,1,5,Y,,>140,168,5,141,NA,DAYS,6003
CDISCPILOT01,701,701,01-701-1146,2013-05-20,2013-06-26,Xanomeline High Dose,81,75,65-80,2,WHITE,1,F,Y,Y,N,Week 8,8,WEEK 6,7,42,2013-06-30,CIBICVAL,CIBIC Score,1,4,Y,,2-84,56,14,2,84,DAYS,6001
CDISCPILOT01,701,701,01-701-1146,2013-05-20,2013-06-26,Xanomeline High Dose,81,75,65-80,2,WHITE,1,F,Y,Y,N,Week 16,16,WEEK 6,7,42,2013-06-30,CIBICVAL,CIBIC Score,1,4,Y,LOCF,85-140,112,70,85,140,DAYS,6001
CDISCPILOT01,701,701,01-701-1146,2013-05-20,2013-06-26,Xanomeline High Dose,81,75,65-80,2,WHITE,1,F,Y,Y,N,Week 24,24,WEEK 6,7,42,2013-06-30,CIBICVAL,CIBIC Score,1,4,Y,LOCF,>140,168,126,141,NA,DAYS,6001
CDISCPILOT01,701,701,01-701-1148,2013-08-23,2014-02-20,Xanomeline High Dose,81,57,<65,1,WHITE,1,M,Y,Y,Y,Week 8,8,WEEK 8,8,57,2013-10-18,CIBICVAL,CIBIC Score,1,5,Y,,2-84,56,1,2,84,DAYS,6001
CDISCPILOT01,701,701,01-701-1148,2013-08-23,2014-02-20,Xanomeline High Dose,81,57,<65,1,WHITE,1,M,Y,Y,Y,Week 16,16,WEEK 16,10,113,2013-12-13,CIBICVAL,CIBIC Score,1,4,Y,,85-140,112,1,85,140,DAYS,6002
CDISCPILOT01,701,701,01-701-1148,2013-08-23,2014-02-20,Xanomeline High Dose,81,57,<65,1,WHITE,1,M,Y,Y,Y,Week 24,24,WEEK 24,12,170,2014-02-08,CIBICVAL,CIBIC Score,1,5,Y,,>140,168,2,141,NA,DAYS,6003
CDISCPILOT01,701,701,01-701-1153,2013-09-23,2014-03-16,Placebo,0,79,65-80,2,WHITE,1,F,Y,Y,Y,Week 8,8,WEEK 8,8,57,2013-11-18,CIBICVAL,CIBIC Score,1,4,Y,,2-84,56,1,2,84,DAYS,6001
CDISCPILOT01,701,701,01-701-1153,2013-09-23,2014-03-16,Placebo,0,79,65-80,2,WHITE,1,F,Y,Y,Y,Week 16,16,WEEK 16,10,108,2014-01-08,CIBICVAL,CIBIC Score,1,4,Y,,85-140,112,4,85,140,DAYS,6002
CDISCPILOT01,701,701,01-701-1153,2013-09-23,2014-03-16,Placebo,0,79,65-80,2,WHITE,1,F,Y,Y,Y,Week 24,24,WEEK 24,12,170,2014-03-11,CIBICVAL,CIBIC Score,1,4,Y,,>140,168,2,141,NA,DAYS,6003
CDISCPILOT01,701,701,01-701-1180,2013-02-12,2013-03-18,Xanomeline High Dose,81,56,<65,1,WHITE,1,M,Y,Y,N,Week 8,8,WEEK 6,7,40,2013-03-23,CIBICVAL,CIBIC Score,1,5,Y,,2-84,56,16,2,84,DAYS,6001
CDISCPILOT01,701,701,01-701-1180,2013-02-12,2013-03-18,Xanomeline High Dose,81,56,<65,1,WHITE,1,M,Y,Y,N,Week 16,16,WEEK 6,7,40,2013-03-23,CIBICVAL,CIBIC Score,1,5,Y,LOCF,85-140,112,72,85,140,DAYS,6001
CDISCPILOT01,701,701,01-701-1180,2013-02-12,2013-03-18,Xanomeline High Dose,81,56,<65,1,WHITE,1,M,Y,Y,N,Week 24,24,WEEK 6,7,40,2013-03-23,CIBICVAL,CIBIC Score,1,5,Y,LOCF,>140,168,128,141,NA,DAYS,6001
CDISCPILOT01,701,701,01-701-1181,2013-12-05,2013-12-09,Xanomeline High Dose,81,79,65-80,2,WHITE,1,F,Y,Y,N,Week 8,8,WEEK 2,4,8,2013-12-12,CIBICVAL,CIBIC Score,1,4,Y,,2-84,56,48,2,84,DAYS,6001
CDISCPILOT01,701,701,01-701-1181,2013-12-05,2013-12-09,Xanomeline High Dose,81,79,65-80,2,WHITE,1,F,Y,Y,N,Week 16,16,WEEK 2,4,8,2013-12-12,CIBICVAL,CIBIC Score,1,4,Y,LOCF,85-140,112,104,85,140,DAYS,6001
CDISCPILOT01,701,701,01-701-1181,2013-12-05,2013-12-09,Xanomeline High Dose,81,79,65-80,2,WHITE,1,F,Y,Y,N,Week 24,24,RETRIEVAL,201,170,2014-05-23,CIBICVAL,CIBIC Score,1,5,Y,,>140,168,2,141,NA,DAYS,6002
CDISCPILOT01,701,701,01-701-1188,2013-02-15,2013-03-24,Xanomeline Low Dose,54,71,65-80,2,WHITE,1,M,Y,Y,N,Week 8,8,WEEK 6,7,39,2013-03-25,CIBICVAL,CIBIC Score,1,4,Y,,2-84,56,17,2,84,DAYS,6001
CDISCPILOT01,701,701,01-701-1188,2013-02-15,2013-03-24,Xanomeline Low Dose,54,71,65-80,2,WHITE,1,M,Y,Y,N,Week 16,16,WEEK 6,7,39,2013-03-25,CIBICVAL,CIBIC Score,1,4,Y,LOCF,85-140,112,73,85,140,DAYS,6001
CDISCPILOT01,701,701,01-701-1188,2013-02-15,2013-03-24,Xanomeline Low Dose,54,71,65-80,2,WHITE,1,M,Y,Y,N,Week 24,24,RETRIEVAL,201,171,2013-08-04,CIBICVAL,CIBIC Score,1,4,Y,,>140,168,3,141,NA,DAYS,6002
CDISCPILOT01,701,701,01-701-1192,2012-07-22,2013-01-20,Xanomeline Low Dose,54,80,65-80,2,WHITE,1,F,Y,Y,Y,Week 8,8,WEEK 8,8,64,2012-09-23,CIBICVAL,CIBIC Score,1,5,Y,,2-84,56,8,2,84,DAYS,6001
CDISCPILOT01,701,701,01-701-1192,2012-07-22,2013-01-20,Xanomeline Low Dose,54,80,65-80,2,WHITE,1,F,Y,Y,Y,Week 16,16,WEEK 16,10,117,2012-11-15,CIBICVAL,CIBIC Score,1,4,Y,,85-140,112,5,85,140,DAYS,6002
CDISCPILOT01,701,701,01-701-1192,2012-07-22,2013-01-20,Xanomeline Low Dose,54,80,65-80,2,WHITE,1,F,Y,Y,Y,Week 24,24,WEEK 24,12,174,2013-01-11,CIBICVAL,CIBIC Score,1,4,Y,,>140,168,6,141,NA,DAYS,6003
CDISCPILOT01,701,701,01-701-1203,2013-02-02,2013-08-03,Placebo,0,81,>80,3,BLACK OR AFRICAN AMERICAN,2,F,Y,Y,Y,Week 8,8,WEEK 8,8,57,2013-03-30,CIBICVAL,CIBIC Score,1,4,Y,,2-84,56,1,2,84,DAYS,6001
CDISCPILOT01,701,701,01-701-1203,2013-02-02,2013-08-03,Placebo,0,81,>80,3,BLACK OR AFRICAN AMERICAN,2,F,Y,Y,Y,Week 16,16,WEEK 16,10,113,2013-05-25,CIBICVAL,CIBIC Score,1,4,Y,,85-140,112,1,85,140,DAYS,6002
CDISCPILOT01,701,701,01-701-1203,2013-02-02,2013-08-03,Placebo,0,81,>80,3,BLACK OR AFRICAN AMERICAN,2,F,Y,Y,Y,Week 24,24,WEEK 24,12,171,2013-07-22,CIBICVAL,CIBIC Score,1,4,Y,,>140,168,3,141,NA,DAYS,6003
CDISCPILOT01,701,701,01-701-1211,2012-11-15,2013-01-12,Xanomeline Low Dose,54,76,65-80,2,WHITE,1,F,Y,Y,N,Week 8,8,WEEK 8,8,55,2013-01-08,CIBICVAL,CIBIC Score,1,5,Y,,2-84,56,1,2,84,DAYS,6001
CDISCPILOT01,701,701,01-701-1211,2012-11-15,2013-01-12,Xanomeline Low Dose,54,76,65-80,2,WHITE,1,F,Y,Y,N,Week 16,16,WEEK 8,8,55,2013-01-08,CIBICVAL,CIBIC Score,1,5,Y,LOCF,85-140,112,57,85,140,DAYS,6001
CDISCPILOT01,701,701,01-701-1211,2012-11-15,2013-01-12,Xanomeline Low Dose,54,76,65-80,2,WHITE,1,F,Y,Y,N,Week 24,24,WEEK 8,8,55,2013-01-08,CIBICVAL,CIBIC Score,1,5,Y,LOCF,>140,168,113,141,NA,DAYS,6001
CDISCPILOT01,701,701,01-701-1234,2013-03-30,2013-09-22,Placebo,0,69,65-80,2,WHITE,1,M,Y,Y,Y,Week 8,8,WEEK 8,8,58,2013-05-26,CIBICVAL,CIBIC Score,1,3,Y,,2-84,56,2,2,84,DAYS,6001
CDISCPILOT01,701,701,01-701-1234,2013-03-30,2013-09-22,Placebo,0,69,65-80,2,WHITE,1,M,Y,Y,Y,Week 16,16,WEEK 16,10,120,2013-07-27,CIBICVAL,CIBIC Score,1,4,Y,,85-140,112,8,85,140,DAYS,6002
CDISCPILOT01,701,701,01-701-1234,2013-03-30,2013-09-22,Placebo,0,69,65-80,2,WHITE,1,M,Y,Y,Y,Week 24,24,WEEK 24,12,165,2013-09-10,CIBICVAL,CIBIC Score,1,4,Y,,>140,168,3,141,NA,DAYS,6003
CDISCPILOT01,701,701,01-701-1239,2014-01-11,2014-07-10,Xanomeline High Dose,81,56,<65,1,WHITE,1,M,Y,Y,Y,Week 8,8,WEEK 8,8,55,2014-03-06,CIBICVAL,CIBIC Score,1,3,Y,,2-84,56,1,2,84,DAYS,6001
CDISCPILOT01,701,701,01-701-1239,2014-01-11,2014-07-10,Xanomeline High Dose,81,56,<65,1,WHITE,1,M,Y,Y,Y,Week 16,16,WEEK 16,10,112,2014-05-02,CIBICVAL,CIBIC Score,1,2,Y,,85-140,112,0,85,140,DAYS,6002
CDISCPILOT01,701,701,01-701-1239,2014-01-11,2014-07-10,Xanomeline High Dose,81,56,<65,1,WHITE,1,M,Y,Y,Y,Week 24,24,WEEK 24,12,168,2014-06-27,CIBICVAL,CIBIC Score,1,3,Y,,>140,168,0,141,NA,DAYS,6003
CDISCPILOT01,701,701,01-701-1275,2014-02-07,2014-05-31,Xanomeline High Dose,81,61,<65,1,AMERICAN INDIAN OR ALASKA NATIVE,6,M,Y,Y,N,Week 8,8,WEEK 8,8,58,2014-04-05,CIBICVAL,CIBIC Score,1,3,Y,,2-84,56,2,2,84,DAYS,6001
CDISCPILOT01,701,701,01-701-1275,2014-02-07,2014-05-31,Xanomeline High Dose,81,61,<65,1,AMERICAN INDIAN OR ALASKA NATIVE,6,M,Y,Y,N,Week 16,16,WEEK 16,10,128,2014-06-14,CIBICVAL,CIBIC Score,1,4,Y,,85-140,112,16,85,140,DAYS,6002
CDISCPILOT01,701,701,01-701-1275,2014-02-07,2014-05-31,Xanomeline High Dose,81,61,<65,1,AMERICAN INDIAN OR ALASKA NATIVE,6,M,Y,Y,N,Week 24,24,WEEK 16,10,128,2014-06-14,CIBICVAL,CIBIC Score,1,4,Y,LOCF,>140,168,40,141,NA,DAYS,6002
CDISCPILOT01,701,701,01-701-1287,2014-01-25,2014-07-26,Xanomeline High Dose,81,56,<65,1,WHITE,1,F,Y,Y,Y,Week 8,8,WEEK 8,8,56,2014-03-21,CIBICVAL,CIBIC Score,1,4,Y,,2-84,56,0,2,84,DAYS,6001
CDISCPILOT01,701,701,01-701-1287,2014-01-25,2014-07-26,Xanomeline High Dose,81,56,<65,1,WHITE,1,F,Y,Y,Y,Week 16,16,WEEK 16,10,111,2014-05-15,CIBICVAL,CIBIC Score,1,4,Y,,85-140,112,1,85,140,DAYS,6002
CDISCPILOT01,701,701,01-701-1287,2014-01-25,2014-07-26,Xanomeline High Dose,81,56,<65,1,WHITE,1,F,Y,Y,Y,Week 24,24,WEEK 24,12,169,2014-07-12,CIBICVAL,CIBIC Score,1,4,Y,,>140,168,1,141,NA,DAYS,6003
CDISCPILOT01,701,701,01-701-1294,2013-03-24,2013-06-14,Xanomeline Low Dose,54,67,65-80,2,WHITE,1,M,Y,Y,N,Week 8,8,WEEK 8,8,60,2013-05-22,CIBICVAL,CIBIC Score,1,5,Y,,2-84,56,4,2,84,DAYS,6001
CDISCPILOT01,701,701,01-701-1294,2013-03-24,2013-06-14,Xanomeline Low Dose,54,67,65-80,2,WHITE,1,M,Y,Y,N,Week 8,8,WEEK 12,9,83,2013-06-14,CIBICVAL,CIBIC Score,1,4,,,2-84,56,27,2,84,DAYS,6002
CDISCPILOT01,701,701,01-701-1294,2013-03-24,2013-06-14,Xanomeline Low Dose,54,67,65-80,2,WHITE,1,M,Y,Y,N,Week 16,16,WEEK 12,9,83,2013-06-14,CIBICVAL,CIBIC Score,1,5,Y,LOCF,85-140,112,29,85,140,DAYS,6002
CDISCPILOT01,701,701,01-701-1294,2013-03-24,2013-06-14,Xanomeline Low Dose,54,67,65-80,2,WHITE,1,M,Y,Y,N,Week 24,24,RETRIEVAL,201,199,2013-10-08,CIBICVAL,CIBIC Score,1,5,Y,,>140,168,31,141,NA,DAYS,6003
CDISCPILOT01,701,701,01-701-1302,2013-08-29,2013-11-05,Xanomeline High Dose,81,61,<65,1,WHITE,1,M,Y,Y,N,Week 8,8,WEEK 8,8,55,2013-10-22,CIBICVAL,CIBIC Score,1,4,Y,,2-84,56,1,2,84,DAYS,6001
CDISCPILOT01,701,701,01-701-1302,2013-08-29,2013-11-05,Xanomeline High Dose,81,61,<65,1,WHITE,1,M,Y,Y,N,Week 8,8,WEEK 12,9,69,2013-11-05,CIBICVAL,CIBIC Score,1,5,,,2-84,56,13,2,84,DAYS,6002
CDISCPILOT01,701,701,01-701-1302,2013-08-29,2013-11-05,Xanomeline High Dose,81,61,<65,1,WHITE,1,M,Y,Y,N,Week 16,16,WEEK 12,9,69,2013-11-05,CIBICVAL,CIBIC Score,1,4,Y,LOCF,85-140,112,43,85,140,DAYS,6002
CDISCPILOT01,701,701,01-701-1302,2013-08-29,2013-11-05,Xanomeline High Dose,81,61,<65,1,WHITE,1,M,Y,Y,N,Week 24,24,RETRIEVAL,201,169,2014-02-13,CIBICVAL,CIBIC Score,1,4,Y,,>140,168,1,141,NA,DAYS,6003
CDISCPILOT01,701,701,01-701-1317,2014-05-22,2014-11-20,Xanomeline Low Dose,54,68,65-80,2,WHITE,1,M,Y,Y,Y,Week 8,8,WEEK 8,8,62,2014-07-22,CIBICVAL,CIBIC Score,1,4,Y,,2-84,56,6,2,84,DAYS,6001
CDISCPILOT01,701,701,01-701-1317,2014-05-22,2014-11-20,Xanomeline Low Dose,54,68,65-80,2,WHITE,1,M,Y,Y,Y,Week 16,16,WEEK 16,10,113,2014-09-11,CIBICVAL,CIBIC Score,1,4,Y,,85-140,112,1,85,140,DAYS,6002
CDISCPILOT01,701,701,01-701-1317,2014-05-22,2014-11-20,Xanomeline Low Dose,54,68,65-80,2,WHITE,1,M,Y,Y,Y,Week 24,24,WEEK 24,12,169,2014-11-06,CIBICVAL,CIBIC Score,1,4,Y,,>140,168,1,141,NA,DAYS,6003
CDISCPILOT01,701,701,01-701-1324,2012-10-02,2013-04-02,Xanomeline Low Dose,54,79,65-80,2,WHITE,1,M,Y,Y,Y,Week 8,8,WEEK 8,8,55,2012-11-25,CIBICVAL,CIBIC Score,1,4,Y,,2-84,56,1,2,84,DAYS,6001
CDISCPILOT01,701,701,01-701-1324,2012-10-02,2013-04-02,Xanomeline Low Dose,54,79,65-80,2,WHITE,1,M,Y,Y,Y,Week 16,16,WEEK 16,10,113,2013-01-22,CIBICVAL,CIBIC Score,1,4,Y,,85-140,112,1,85,140,DAYS,6002
CDISCPILOT01,701,701,01-701-1324,2012-10-02,2013-04-02,Xanomeline Low Dose,54,79,65-80,2,WHITE,1,M,Y,Y,Y,Week 24,24,WEEK 24,12,169,2013-03-19,CIBICVAL,CIBIC Score,1,5,Y,,>140,168,1,141,NA,DAYS,6003
CDISCPILOT01,701,701,01-701-1341,2013-01-05,2013-01-26,Xanomeline Low Dose,54,51,<65,1,WHITE,1,M,Y,Y,N,Week 8,8,WEEK 4,5,34,2013-02-07,CIBICVAL,CIBIC Score,1,4,Y,,2-84,56,22,2,84,DAYS,6001
CDISCPILOT01,701,701,01-701-1341,2013-01-05,2013-01-26,Xanomeline Low Dose,54,51,<65,1,WHITE,1,M,Y,Y,N,Week 16,16,WEEK 4,5,34,2013-02-07,CIBICVAL,CIBIC Score,1,4,Y,LOCF,85-140,112,78,85,140,DAYS,6001
CDISCPILOT01,701,701,01-701-1341,2013-01-05,2013-01-26,Xanomeline Low Dose,54,51,<65,1,WHITE,1,M,Y,Y,N,Week 24,24,WEEK 4,5,34,2013-02-07,CIBICVAL,CIBIC Score,1,4,Y,LOCF,>140,168,134,141,NA,DAYS,6001
CDISCPILOT01,701,701,01-701-1345,2013-10-08,2014-03-18,Placebo,0,63,<65,1,WHITE,1,F,Y,Y,Y,Week 8,8,WEEK 8,8,57,2013-12-03,CIBICVAL,CIBIC Score,1,4,Y,,2-84,56,1,2,84,DAYS,6001
CDISCPILOT01,701,701,01-701-1345,2013-10-08,2014-03-18,Placebo,0,63,<65,1,WHITE,1,F,Y,Y,Y,Week 16,16,WEEK 16,10,112,2014-01-27,CIBICVAL,CIBIC Score,1,5,Y,,85-140,112,0,85,140,DAYS,6002
CDISCPILOT01,701,701,01-701-1345,2013-10-08,2014-03-18,Placebo,0,63,<65,1,WHITE,1,F,Y,Y,Y,Week 24,24,WEEK 24,12,162,2014-03-18,CIBICVAL,CIBIC Score,1,5,Y,,>140,168,6,141,NA,DAYS,6003
CDISCPILOT01,701,701,01-701-1360,2013-07-31,2013-08-05,Xanomeline High Dose,81,67,65-80,2,WHITE,1,M,Y,Y,N,Week 8,8,WEEK 2,4,15,2013-08-14,CIBICVAL,CIBIC Score,1,4,Y,,2-84,56,41,2,84,DAYS,6001
CDISCPILOT01,701,701,01-701-1360,2013-07-31,2013-08-05,Xanomeline High Dose,81,67,65-80,2,WHITE,1,M,Y,Y,N,Week 16,16,WEEK 2,4,15,2013-08-14,CIBICVAL,CIBIC Score,1,4,Y,LOCF,85-140,112,97,85,140,DAYS,6001
CDISCPILOT01,701,701,01-701-1360,2013-07-31,2013-08-05,Xanomeline High Dose,81,67,65-80,2,WHITE,1,M,Y,Y,N,Week 24,24,RETRIEVAL,201,196,2014-02-11,CIBICVAL,CIBIC Score,1,4,Y,,>140,168,28,141,NA,DAYS,6002
CDISCPILOT01,701,701,01-701-1363,2013-05-30,2013-11-27,Placebo,0,81,>80,3,BLACK OR AFRICAN AMERICAN,2,F,Y,Y,Y,Week 8,8,WEEK 8,8,56,2013-07-24,CIBICVAL,CIBIC Score,1,5,Y,,2-84,56,0,2,84,DAYS,6001
CDISCPILOT01,701,701,01-701-1363,2013-05-30,2013-11-27,Placebo,0,81,>80,3,BLACK OR AFRICAN AMERICAN,2,F,Y,Y,Y,Week 16,16,WEEK 16,10,112,2013-09-18,CIBICVAL,CIBIC Score,1,4,Y,,85-140,112,0,85,140,DAYS,6002
CDISCPILOT01,701,701,01-701-1363,2013-05-30,2013-11-27,Placebo,0,81,>80,3,BLACK OR AFRICAN AMERICAN,2,F,Y,Y,Y,Week 24,24,WEEK 24,12,168,2013-11-13,CIBICVAL,CIBIC Score,1,5,Y,,>140,168,0,141,NA,DAYS,6003
CDISCPILOT01,701,701,01-701-1383,2013-02-04,2013-08-06,Xanomeline High Dose,81,72,65-80,2,WHITE,1,F,Y,Y,Y,Week 8,8,WEEK 8,8,58,2013-04-02,CIBICVAL,CIBIC Score,1,4,Y,,2-84,56,2,2,84,DAYS,6001
CDISCPILOT01,701,701,01-701-1383,2013-02-04,2013-08-06,Xanomeline High Dose,81,72,65-80,2,WHITE,1,F,Y,Y,Y,Week 16,16,WEEK 16,10,116,2013-05-30,CIBICVAL,CIBIC Score,1,4,Y,,85-140,112,4,85,140,DAYS,6002
CDISCPILOT01,701,701,01-701-1383,2013-02-04,2013-08-06,Xanomeline High Dose,81,72,65-80,2,WHITE,1,F,Y,Y,Y,Week 24,24,WEEK 24,12,177,2013-07-30,CIBICVAL,CIBIC Score,1,5,Y,,>140,168,9,141,NA,DAYS,6003
CDISCPILOT01,701,701,01-701-1387,2014-03-12,2014-03-25,Placebo,0,87,>80,3,WHITE,1,F,Y,Y,N,Week 8,8,WEEK 2,4,14,2014-03-25,CIBICVAL,CIBIC Score,1,3,Y,,2-84,56,42,2,84,DAYS,6001
CDISCPILOT01,701,701,01-701-1387,2014-03-12,2014-03-25,Placebo,0,87,>80,3,WHITE,1,F,Y,Y,N,Week 16,16,WEEK 2,4,14,2014-03-25,CIBICVAL,CIBIC Score,1,3,Y,LOCF,85-140,112,98,85,140,DAYS,6001
CDISCPILOT01,701,701,01-701-1387,2014-03-12,2014-03-25,Placebo,0,87,>80,3,WHITE,1,F,Y,Y,N,Week 24,24,RETRIEVAL,201,169,2014-08-27,CIBICVAL,CIBIC Score,1,6,Y,,>140,168,1,141,NA,DAYS,6002
CDISCPILOT01,701,701,01-701-1392,2012-10-28,2013-04-28,Placebo,0,78,65-80,2,WHITE,1,M,Y,Y,Y,Week 8,8,WEEK 8,8,54,2012-12-20,CIBICVAL,CIBIC Score,1,4,Y,,2-84,56,2,2,84,DAYS,6001
CDISCPILOT01,701,701,01-701-1392,2012-10-28,2013-04-28,Placebo,0,78,65-80,2,WHITE,1,M,Y,Y,Y,Week 16,16,WEEK 16,10,113,2013-02-17,CIBICVAL,CIBIC Score,1,5,Y,,85-140,112,1,85,140,DAYS,6002
CDISCPILOT01,701,701,01-701-1392,2012-10-28,2013-04-28,Placebo,0,78,65-80,2,WHITE,1,M,Y,Y,Y,Week 24,24,WEEK 24,12,170,2013-04-15,CIBICVAL,CIBIC Score,1,4,Y,,>140,168,2,141,NA,DAYS,6003
CDISCPILOT01,701,701,01-701-1415,2013-09-23,2014-03-24,Placebo,0,85,>80,3,WHITE,1,M,Y,Y,Y,Week 8,8,WEEK 8,8,60,2013-11-21,CIBICVAL,CIBIC Score,1,5,Y,,2-84,56,4,2,84,DAYS,6001
CDISCPILOT01,701,701,01-701-1415,2013-09-23,2014-03-24,Placebo,0,85,>80,3,WHITE,1,M,Y,Y,Y,Week 16,16,WEEK 16,10,114,2014-01-14,CIBICVAL,CIBIC Score,1,4,Y,,85-140,112,2,85,140,DAYS,6002
CDISCPILOT01,701,701,01-701-1415,2013-09-23,2014-03-24,Placebo,0,85,>80,3,WHITE,1,M,Y,Y,Y,Week 24,24,WEEK 24,12,169,2014-03-10,CIBICVAL,CIBIC Score,1,4,Y,,>140,168,1,141,NA,DAYS,6003
CDISCPILOT01,701,701,01-701-1429,2013-03-19,2013-04-30,Xanomeline Low Dose,54,84,>80,3,WHITE,1,F,Y,Y,N,Week 8,8,WEEK 6,7,43,2013-04-30,CIBICVAL,CIBIC Score,1,3,Y,,2-84,56,13,2,84,DAYS,6001
CDISCPILOT01,701,701,01-701-1429,2013-03-19,2013-04-30,Xanomeline Low Dose,54,84,>80,3,WHITE,1,F,Y,Y,N,Week 16,16,WEEK 6,7,43,2013-04-30,CIBICVAL,CIBIC Score,1,3,Y,LOCF,85-140,112,69,85,140,DAYS,6001
CDISCPILOT01,701,701,01-701-1429,2013-03-19,2013-04-30,Xanomeline Low Dose,54,84,>80,3,WHITE,1,F,Y,Y,N,Week 24,24,WEEK 6,7,43,2013-04-30,CIBICVAL,CIBIC Score,1,3,Y,LOCF,>140,168,125,141,NA,DAYS,6001
CDISCPILOT01,701,701,01-701-1440,2013-08-08,2014-02-05,Placebo,0,70,65-80,2,WHITE,1,M,Y,Y,Y,Week 8,8,WEEK 8,8,57,2013-10-03,CIBICVAL,CIBIC Score,1,3,Y,,2-84,56,1,2,84,DAYS,6001
CDISCPILOT01,701,701,01-701-1440,2013-08-08,2014-02-05,Placebo,0,70,65-80,2,WHITE,1,M,Y,Y,Y,Week 16,16,WEEK 16,10,112,2013-11-27,CIBICVAL,CIBIC Score,1,5,Y,,85-140,112,0,85,140,DAYS,6002
CDISCPILOT01,701,701,01-701-1440,2013-08-08,2014-02-05,Placebo,0,70,65-80,2,WHITE,1,M,Y,Y,Y,Week 24,24,WEEK 24,12,168,2014-01-22,CIBICVAL,CIBIC Score,1,5,Y,,>140,168,0,141,NA,DAYS,6003
CDISCPILOT01,701,701,01-701-1442,2013-10-26,2014-04-26,Xanomeline Low Dose,54,57,<65,1,BLACK OR AFRICAN AMERICAN,2,F,Y,Y,Y,Week 8,8,WEEK 8,8,62,2013-12-26,CIBICVAL,CIBIC Score,1,4,Y,,2-84,56,6,2,84,DAYS,6001
CDISCPILOT01,701,701,01-701-1442,2013-10-26,2014-04-26,Xanomeline Low Dose,54,57,<65,1,BLACK OR AFRICAN AMERICAN,2,F,Y,Y,Y,Week 16,16,WEEK 16,10,113,2014-02-15,CIBICVAL,CIBIC Score,1,4,Y,,85-140,112,1,85,140,DAYS,6002
CDISCPILOT01,701,701,01-701-1442,2013-10-26,2014-04-26,Xanomeline Low Dose,54,57,<65,1,BLACK OR AFRICAN AMERICAN,2,F,Y,Y,Y,Week 24,24,WEEK 24,12,174,2014-04-17,CIBICVAL,CIBIC Score,1,4,Y,,>140,168,6,141,NA,DAYS,6003
CDISCPILOT01,701,701,01-701-1444,2013-01-05,2013-02-12,Xanomeline High Dose,81,63,<65,1,WHITE,1,M,Y,Y,N,Week 8,8,WEEK 6,7,40,2013-02-13,CIBICVAL,CIBIC Score,1,5,Y,,2-84,56,16,2,84,DAYS,6001
CDISCPILOT01,701,701,01-701-1444,2013-01-05,2013-02-12,Xanomeline High Dose,81,63,<65,1,WHITE,1,M,Y,Y,N,Week 16,16,WEEK 6,7,40,2013-02-13,CIBICVAL,CIBIC Score,1,5,Y,LOCF,85-140,112,72,85,140,DAYS,6001
CDISCPILOT01,701,701,01-701-1444,2013-01-05,2013-02-12,Xanomeline High Dose,81,63,<65,1,WHITE,1,M,Y,Y,N,Week 24,24,RETRIEVAL,201,167,2013-06-20,CIBICVAL,CIBIC Score,1,5,Y,,>140,168,1,141,NA,DAYS,6002
CDISCPILOT01,702,900,01-702-1082,2013-07-26,2013-10-13,Xanomeline Low Dose,54,84,>80,3,WHITE,1,F,Y,Y,N,Week 8,8,WEEK 8,8,65,2013-09-28,CIBICVAL,CIBIC Score,1,4,Y,,2-84,56,9,2,84,DAYS,6001
CDISCPILOT01,702,900,01-702-1082,2013-07-26,2013-10-13,Xanomeline Low Dose,54,84,>80,3,WHITE,1,F,Y,Y,N,Week 16,16,WEEK 12,9,115,2013-11-17,CIBICVAL,CIBIC Score,1,4,Y,,85-140,112,3,85,140,DAYS,6002
CDISCPILOT01,702,900,01-702-1082,2013-07-26,2013-10-13,Xanomeline Low Dose,54,84,>80,3,WHITE,1,F,Y,Y,N,Week 24,24,WEEK 12,9,115,2013-11-17,CIBICVAL,CIBIC Score,1,4,Y,LOCF,>140,168,53,141,NA,DAYS,6002
CDISCPILOT01,703,703,01-703-1042,2013-03-02,2013-08-31,Placebo,0,64,<65,1,WHITE,1,M,Y,Y,Y,Week 16,16,WEEK 16,10,113,2013-06-22,CIBICVAL,CIBIC Score,1,4,Y,,85-140,112,1,85,140,DAYS,6001
CDISCPILOT01,703,703,01-703-1042,2013-03-02,2013-08-31,Placebo,0,64,<65,1,WHITE,1,M,Y,Y,Y,Week 24,24,WEEK 24,12,161,2013-08-09,CIBICVAL,CIBIC Score,1,4,Y,,>140,168,7,141,NA,DAYS,6002
CDISCPILOT01,703,703,01-703-1076,2013-10-25,2013-12-24,Xanomeline High Dose,81,69,65-80,2,WHITE,1,M,Y,Y,N,Week 8,8,WEEK 8,8,54,2013-12-17,CIBICVAL,CIBIC Score,1,3,Y,,2-84,56,2,2,84,DAYS,6001
CDISCPILOT01,703,703,01-703-1076,2013-10-25,2013-12-24,Xanomeline High Dose,81,69,65-80,2,WHITE,1,M,Y,Y,N,Week 8,8,WEEK 12,9,61,2013-12-24,CIBICVAL,CIBIC Score,1,3,,,2-84,56,5,2,84,DAYS,6002
CDISCPILOT01,703,703,01-703-1076,2013-10-25,2013-12-24,Xanomeline High Dose,81,69,65-80,2,WHITE,1,M,Y,Y,N,Week 16,16,WEEK 12,9,61,2013-12-24,CIBICVAL,CIBIC Score,1,3,Y,LOCF,85-140,112,51,85,140,DAYS,6002
CDISCPILOT01,703,703,01-703-1076,2013-10-25,2013-12-24,Xanomeline High Dose,81,69,65-80,2,WHITE,1,M,Y,Y,N,Week 24,24,WEEK 12,9,61,2013-12-24,CIBICVAL,CIBIC Score,1,3,Y,LOCF,>140,168,107,141,NA,DAYS,6002
CDISCPILOT01,703,703,01-703-1086,2012-09-02,2012-12-04,Xanomeline Low Dose,54,71,65-80,2,WHITE,1,M,Y,Y,N,Week 8,8,WEEK 8,8,56,2012-10-27,CIBICVAL,CIBIC Score,1,3,Y,,2-84,56,0,2,84,DAYS,6001
CDISCPILOT01,703,703,01-703-1086,2012-09-02,2012-12-04,Xanomeline Low Dose,54,71,65-80,2,WHITE,1,M,Y,Y,N,Week 16,16,WEEK 16,10,114,2012-12-24,CIBICVAL,CIBIC Score,1,3,Y,,85-140,112,2,85,140,DAYS,6002
CDISCPILOT01,703,703,01-703-1086,2012-09-02,2012-12-04,Xanomeline Low Dose,54,71,65-80,2,WHITE,1,M,Y,Y,N,Week 24,24,RETRIEVAL,201,206,2013-03-26,CIBICVAL,CIBIC Score,1,3,Y,,>140,168,38,141,NA,DAYS,6003
CDISCPILOT01,703,703,01-703-1100,2013-03-13,2013-09-14,Placebo,0,84,>80,3,WHITE,1,F,Y,Y,Y,Week 8,8,WEEK 8,8,57,2013-05-08,CIBICVAL,CIBIC Score,1,4,Y,,2-84,56,1,2,84,DAYS,6001
CDISCPILOT01,703,703,01-703-1100,2013-03-13,2013-09-14,Placebo,0,84,>80,3,WHITE,1,F,Y,Y,Y,Week 16,16,WEEK 16,10,113,2013-07-03,CIBICVAL,CIBIC Score,1,4,Y,,85-140,112,1,85,140,DAYS,6002
CDISCPILOT01,703,703,01-703-1100,2013-03-13,2013-09-14,Placebo,0,84,>80,3,WHITE,1,F,Y,Y,Y,Week 24,24,WEEK 24,12,169,2013-08-28,CIBICVAL,CIBIC Score,1,5,Y,,>140,168,1,141,NA,DAYS,6003
CDISCPILOT01,703,703,01-703-1119,2013-02-20,2013-06-13,Xanomeline Low Dose,54,81,>80,3,WHITE,1,F,Y,Y,N,Week 8,8,WEEK 8,8,59,2013-04-19,CIBICVAL,CIBIC Score,1,4,Y,,2-84,56,3,2,84,DAYS,6001
CDISCPILOT01,703,703,01-703-1119,2013-02-20,2013-06-13,Xanomeline Low Dose,54,81,>80,3,WHITE,1,F,Y,Y,N,Week 16,16,WEEK 16,10,114,2013-06-13,CIBICVAL,CIBIC Score,1,5,Y,,85-140,112,2,85,140,DAYS,6002
CDISCPILOT01,703,703,01-703-1119,2013-02-20,2013-06-13,Xanomeline Low Dose,54,81,>80,3,WHITE,1,F,Y,Y,N,Week 24,24,RETRIEVAL,201,186,2013-08-24,CIBICVAL,CIBIC Score,1,5,Y,,>140,168,18,141,NA,DAYS,6003
CDISCPILOT01,703,703,01-703-1175,2013-12-20,2013-12-26,Placebo,0,75,65-80,2,WHITE,1,M,Y,Y,N,Week 8,8,WEEK 2,4,12,2013-12-31,CIBICVAL,CIBIC Score,1,4,Y,,2-84,56,44,2,84,DAYS,6001
CDISCPILOT01,703,703,01-703-1175,2013-12-20,2013-12-26,Placebo,0,75,65-80,2,WHITE,1,M,Y,Y,N,Week 16,16,WEEK 2,4,12,2013-12-31,CIBICVAL,CIBIC Score,1,4,Y,LOCF,85-140,112,100,85,140,DAYS,6001
CDISCPILOT01,703,703,01-703-1175,2013-12-20,2013-12-26,Placebo,0,75,65-80,2,WHITE,1,M,Y,Y,N,Week 24,24,WEEK 2,4,12,2013-12-31,CIBICVAL,CIBIC Score,1,4,Y,LOCF,>140,168,156,141,NA,DAYS,6001
CDISCPILOT01,703,703,01-703-1182,2013-10-17,2013-12-11,Xanomeline Low Dose,54,84,>80,3,WHITE,1,M,Y,Y,N,Week 8,8,WEEK 8,8,57,2013-12-12,CIBICVAL,CIBIC Score,1,4,Y,,2-84,56,1,2,84,DAYS,6001
CDISCPILOT01,703,703,01-703-1182,2013-10-17,2013-12-11,Xanomeline Low Dose,54,84,>80,3,WHITE,1,M,Y,Y,N,Week 16,16,WEEK 8,8,57,2013-12-12,CIBICVAL,CIBIC Score,1,4,Y,LOCF,85-140,112,55,85,140,DAYS,6001
CDISCPILOT01,703,703,01-703-1182,2013-10-17,2013-12-11,Xanomeline Low Dose,54,84,>80,3,WHITE,1,M,Y,Y,N,Week 24,24,WEEK 8,8,57,2013-12-12,CIBICVAL,CIBIC Score,1,4,Y,LOCF,>140,168,111,141,NA,DAYS,6001
CDISCPILOT01,703,703,01-703-1197,2013-06-16,2013-06-29,Xanomeline Low Dose,54,76,65-80,2,BLACK OR AFRICAN AMERICAN,2,F,Y,Y,N,Week 8,8,WEEK 2,4,37,2013-07-22,CIBICVAL,CIBIC Score,1,4,Y,,2-84,56,19,2,84,DAYS,6001
CDISCPILOT01,703,703,01-703-1197,2013-06-16,2013-06-29,Xanomeline Low Dose,54,76,65-80,2,BLACK OR AFRICAN AMERICAN,2,F,Y,Y,N,Week 16,16,WEEK 2,4,37,2013-07-22,CIBICVAL,CIBIC Score,1,4,Y,LOCF,85-140,112,75,85,140,DAYS,6001
CDISCPILOT01,703,703,01-703-1197,2013-06-16,2013-06-29,Xanomeline Low Dose,54,76,65-80,2,BLACK OR AFRICAN AMERICAN,2,F,Y,Y,N,Week 24,24,WEEK 2,4,37,2013-07-22,CIBICVAL,CIBIC Score,1,4,Y,LOCF,>140,168,131,141,NA,DAYS,6001
CDISCPILOT01,703,703,01-703-1210,2013-03-16,2013-09-06,Placebo,0,72,65-80,2,WHITE,1,F,Y,Y,Y,Week 8,8,WEEK 8,8,56,2013-05-10,CIBICVAL,CIBIC Score,1,5,Y,,2-84,56,0,2,84,DAYS,6001
CDISCPILOT01,703,703,01-703-1210,2013-03-16,2013-09-06,Placebo,0,72,65-80,2,WHITE,1,F,Y,Y,Y,Week 16,16,WEEK 16,10,112,2013-07-05,CIBICVAL,CIBIC Score,1,4,Y,,85-140,112,0,85,140,DAYS,6002
CDISCPILOT01,703,703,01-703-1210,2013-03-16,2013-09-06,Placebo,0,72,65-80,2,WHITE,1,F,Y,Y,Y,Week 24,24,WEEK 24,12,162,2013-08-24,CIBICVAL,CIBIC Score,1,5,Y,,>140,168,6,141,NA,DAYS,6003
CDISCPILOT01,703,703,01-703-1258,2012-07-20,2013-01-11,Xanomeline High Dose,81,78,65-80,2,WHITE,1,F,Y,Y,Y,Week 8,8,WEEK 8,8,57,2012-09-14,CIBICVAL,CIBIC Score,1,5,Y,,2-84,56,1,2,84,DAYS,6001
CDISCPILOT01,703,703,01-703-1258,2012-07-20,2013-01-11,Xanomeline High Dose,81,78,65-80,2,WHITE,1,F,Y,Y,Y,Week 16,16,WEEK 16,10,109,2012-11-05,CIBICVAL,CIBIC Score,1,4,Y,,85-140,112,3,85,140,DAYS,6002
CDISCPILOT01,703,703,01-703-1258,2012-07-20,2013-01-11,Xanomeline High Dose,81,78,65-80,2,WHITE,1,F,Y,Y,Y,Week 24,24,WEEK 24,12,165,2012-12-31,CIBICVAL,CIBIC Score,1,5,Y,,>140,168,3,141,NA,DAYS,6003
CDISCPILOT01,703,703,01-703-1295,2013-11-21,2014-04-19,Xanomeline High Dose,81,88,>80,3,WHITE,1,F,Y,Y,N,Week 8,8,WEEK 8,8,56,2014-01-15,CIBICVAL,CIBIC Score,1,5,Y,,2-84,56,0,2,84,DAYS,6001
CDISCPILOT01,703,703,01-703-1295,2013-11-21,2014-04-19,Xanomeline High Dose,81,88,>80,3,WHITE,1,F,Y,Y,N,Week 16,16,WEEK 16,10,113,2014-03-13,CIBICVAL,CIBIC Score,1,4,Y,,85-140,112,1,85,140,DAYS,6002
CDISCPILOT01,703,703,01-703-1295,2013-11-21,2014-04-19,Xanomeline High Dose,81,88,>80,3,WHITE,1,F,Y,Y,N,Week 24,24,WEEK 16,10,113,2014-03-13,CIBICVAL,CIBIC Score,1,4,Y,LOCF,>140,168,55,141,NA,DAYS,6002
CDISCPILOT01,703,703,01-703-1299,2012-09-12,2013-03-13,Placebo,0,81,>80,3,WHITE,1,F,Y,Y,Y,Week 8,8,WEEK 8,8,57,2012-11-07,CIBICVAL,CIBIC Score,1,3,Y,,2-84,56,1,2,84,DAYS,6001
CDISCPILOT01,703,703,01-703-1299,2012-09-12,2013-03-13,Placebo,0,81,>80,3,WHITE,1,F,Y,Y,Y,Week 16,16,WEEK 16,10,113,2013-01-02,CIBICVAL,CIBIC Score,1,4,Y,,85-140,112,1,85,140,DAYS,6002
CDISCPILOT01,703,703,01-703-1299,2012-09-12,2013-03-13,Placebo,0,81,>80,3,WHITE,1,F,Y,Y,Y,Week 24,24,WEEK 24,12,171,2013-03-01,CIBICVAL,CIBIC Score,1,4,Y,,>140,168,3,141,NA,DAYS,6003
CDISCPILOT01,703,703,01-703-1335,2014-03-17,2014-05-07,Xanomeline High Dose,81,67,65-80,2,BLACK OR AFRICAN AMERICAN,2,F,Y,Y,N,Week 8,8,WEEK 6,7,69,2014-05-24,CIBICVAL,CIBIC Score,1,5,Y,,2-84,56,13,2,84,DAYS,6001
CDISCPILOT01,703,703,01-703-1335,2014-03-17,2014-05-07,Xanomeline High Dose,81,67,65-80,2,BLACK OR AFRICAN AMERICAN,2,F,Y,Y,N,Week 16,16,WEEK 6,7,69,2014-05-24,CIBICVAL,CIBIC Score,1,5,Y,LOCF,85-140,112,43,85,140,DAYS,6001
CDISCPILOT01,703,703,01-703-1335,2014-03-17,2014-05-07,Xanomeline High Dose,81,67,65-80,2,BLACK OR AFRICAN AMERICAN,2,F,Y,Y,N,Week 24,24,WEEK 6,7,69,2014-05-24,CIBICVAL,CIBIC Score,1,5,Y,LOCF,>140,168,99,141,NA,DAYS,6001
CDISCPILOT01,703,703,01-703-1379,2013-09-22,2014-03-21,Xanomeline Low Dose,54,81,>80,3,BLACK OR AFRICAN AMERICAN,2,F,Y,Y,Y,Week 8,8,WEEK 8,8,57,2013-11-17,CIBICVAL,CIBIC Score,1,4,Y,,2-84,56,1,2,84,DAYS,6001
CDISCPILOT01,703,703,01-703-1379,2013-09-22,2014-03-21,Xanomeline Low Dose,54,81,>80,3,BLACK OR AFRICAN AMERICAN,2,F,Y,Y,Y,Week 16,16,WEEK 16,10,112,2014-01-11,CIBICVAL,CIBIC Score,1,4,Y,,85-140,112,0,85,140,DAYS,6002
CDISCPILOT01,703,703,01-703-1379,2013-09-22,2014-03-21,Xanomeline Low Dose,54,81,>80,3,BLACK OR AFRICAN AMERICAN,2,F,Y,Y,Y,Week 24,24,WEEK 24,12,168,2014-03-08,CIBICVAL,CIBIC Score,1,5,Y,,>140,168,0,141,NA,DAYS,6003
CDISCPILOT01,703,703,01-703-1439,2014-03-12,2014-09-11,Xanomeline High Dose,81,76,65-80,2,WHITE,1,F,Y,Y,Y,Week 8,8,WEEK 8,8,55,2014-05-05,CIBICVAL,CIBIC Score,1,4,Y,,2-84,56,1,2,84,DAYS,6001
CDISCPILOT01,703,703,01-703-1439,2014-03-12,2014-09-11,Xanomeline High Dose,81,76,65-80,2,WHITE,1,F,Y,Y,Y,Week 16,16,WEEK 16,10,111,2014-06-30,CIBICVAL,CIBIC Score,1,5,Y,,85-140,112,1,85,140,DAYS,6002
CDISCPILOT01,703,703,01-703-1439,2014-03-12,2014-09-11,Xanomeline High Dose,81,76,65-80,2,WHITE,1,F,Y,Y,Y,Week 24,24,WEEK 24,12,170,2014-08-28,CIBICVAL,CIBIC Score,1,5,Y,,>140,168,2,141,NA,DAYS,6003
CDISCPILOT01,704,704,01-704-1008,2013-01-13,2013-02-21,Xanomeline High Dose,81,76,65-80,2,WHITE,1,F,Y,Y,N,Week 8,8,WEEK 6,7,44,2013-02-25,CIBICVAL,CIBIC Score,1,5,Y,,2-84,56,12,2,84,DAYS,6001
CDISCPILOT01,704,704,01-704-1008,2013-01-13,2013-02-21,Xanomeline High Dose,81,76,65-80,2,WHITE,1,F,Y,Y,N,Week 16,16,WEEK 6,7,44,2013-02-25,CIBICVAL,CIBIC Score,1,5,Y,LOCF,85-140,112,68,85,140,DAYS,6001
CDISCPILOT01,704,704,01-704-1008,2013-01-13,2013-02-21,Xanomeline High Dose,81,76,65-80,2,WHITE,1,F,Y,Y,N,Week 24,24,WEEK 6,7,44,2013-02-25,CIBICVAL,CIBIC Score,1,5,Y,LOCF,>140,168,124,141,NA,DAYS,6001
CDISCPILOT01,704,704,01-704-1009,2013-08-27,2013-09-25,Xanomeline Low Dose,54,83,>80,3,WHITE,1,M,Y,Y,N,Week 8,8,WEEK 4,5,37,2013-10-02,CIBICVAL,CIBIC Score,1,4,Y,,2-84,56,19,2,84,DAYS,6001
CDISCPILOT01,704,704,01-704-1009,2013-08-27,2013-09-25,Xanomeline Low Dose,54,83,>80,3,WHITE,1,M,Y,Y,N,Week 16,16,WEEK 4,5,37,2013-10-02,CIBICVAL,CIBIC Score,1,4,Y,LOCF,85-140,112,75,85,140,DAYS,6001
CDISCPILOT01,704,704,01-704-1009,2013-08-27,2013-09-25,Xanomeline Low Dose,54,83,>80,3,WHITE,1,M,Y,Y,N,Week 24,24,WEEK 4,5,37,2013-10-02,CIBICVAL,CIBIC Score,1,4,Y,LOCF,>140,168,131,141,NA,DAYS,6001
CDISCPILOT01,704,704,01-704-1010,2014-02-21,2014-07-08,Placebo,0,80,65-80,2,WHITE,1,M,Y,Y,N,Week 8,8,WEEK 8,8,63,2014-04-24,CIBICVAL,CIBIC Score,1,4,Y,,2-84,56,7,2,84,DAYS,6001
CDISCPILOT01,704,704,01-704-1010,2014-02-21,2014-07-08,Placebo,0,80,65-80,2,WHITE,1,M,Y,Y,N,Week 16,16,WEEK 16,10,113,2014-06-13,CIBICVAL,CIBIC Score,1,3,Y,,85-140,112,1,85,140,DAYS,6002
CDISCPILOT01,704,704,01-704-1010,2014-02-21,2014-07-08,Placebo,0,80,65-80,2,WHITE,1,M,Y,Y,N,Week 16,16,WEEK 20,11,139,2014-07-09,CIBICVAL,CIBIC Score,1,3,,,85-140,112,27,85,140,DAYS,6003
CDISCPILOT01,704,704,01-704-1010,2014-02-21,2014-07-08,Placebo,0,80,65-80,2,WHITE,1,M,Y,Y,N,Week 24,24,WEEK 20,11,139,2014-07-09,CIBICVAL,CIBIC Score,1,3,Y,LOCF,>140,168,29,141,NA,DAYS,6003
CDISCPILOT01,704,704,01-704-1017,2013-10-06,2013-11-18,Xanomeline High Dose,81,77,65-80,2,WHITE,1,M,Y,Y,N,Week 8,8,WEEK 6,7,50,2013-11-24,CIBICVAL,CIBIC Score,1,4,Y,,2-84,56,6,2,84,DAYS,6001
CDISCPILOT01,704,704,01-704-1017,2013-10-06,2013-11-18,Xanomeline High Dose,81,77,65-80,2,WHITE,1,M,Y,Y,N,Week 16,16,WEEK 6,7,50,2013-11-24,CIBICVAL,CIBIC Score,1,4,Y,LOCF,85-140,112,62,85,140,DAYS,6001
CDISCPILOT01,704,704,01-704-1017,2013-10-06,2013-11-18,Xanomeline High Dose,81,77,65-80,2,WHITE,1,M,Y,Y,N,Week 24,24,WEEK 6,7,50,2013-11-24,CIBICVAL,CIBIC Score,1,4,Y,LOCF,>140,168,118,141,NA,DAYS,6001
CDISCPILOT01,704,704,01-704-1025,2013-09-27,2013-10-24,Xanomeline Low Dose,54,81,>80,3,WHITE,1,F,Y,Y,N,Week 8,8,AMBUL ECG REMOVAL,6,64,2013-11-29,CIBICVAL,CIBIC Score,1,4,Y,,2-84,56,8,2,84,DAYS,6001
CDISCPILOT01,704,704,01-704-1025,2013-09-27,2013-10-24,Xanomeline Low Dose,54,81,>80,3,WHITE,1,F,Y,Y,N,Week 16,16,AMBUL ECG REMOVAL,6,64,2013-11-29,CIBICVAL,CIBIC Score,1,4,Y,LOCF,85-140,112,48,85,140,DAYS,6001
CDISCPILOT01,704,704,01-704-1025,2013-09-27,2013-10-24,Xanomeline Low Dose,54,81,>80,3,WHITE,1,F,Y,Y,N,Week 24,24,AMBUL ECG REMOVAL,6,64,2013-11-29,CIBICVAL,CIBIC Score,1,4,Y,LOCF,>140,168,104,141,NA,DAYS,6001
CDISCPILOT01,704,704,01-704-1065,2013-10-24,2013-12-22,Xanomeline High Dose,81,75,65-80,2,WHITE,1,M,Y,Y,N,Week 8,8,WEEK 8,8,58,2013-12-20,CIBICVAL,CIBIC Score,1,4,Y,,2-84,56,2,2,84,DAYS,6001
CDISCPILOT01,704,704,01-704-1065,2013-10-24,2013-12-22,Xanomeline High Dose,81,75,65-80,2,WHITE,1,M,Y,Y,N,Week 8,8,WEEK 12,9,62,2013-12-24,CIBICVAL,CIBIC Score,1,5,,,2-84,56,6,2,84,DAYS,6002
CDISCPILOT01,704,704,01-704-1065,2013-10-24,2013-12-22,Xanomeline High Dose,81,75,65-80,2,WHITE,1,M,Y,Y,N,Week 16,16,WEEK 12,9,62,2013-12-24,CIBICVAL,CIBIC Score,1,4,Y,LOCF,85-140,112,50,85,140,DAYS,6002
CDISCPILOT01,704,704,01-704-1065,2013-10-24,2013-12-22,Xanomeline High Dose,81,75,65-80,2,WHITE,1,M,Y,Y,N,Week 24,24,WEEK 12,9,62,2013-12-24,CIBICVAL,CIBIC Score,1,4,Y,LOCF,>140,168,106,141,NA,DAYS,6002
CDISCPILOT01,704,704,01-704-1074,2014-01-22,2014-03-20,Xanomeline High Dose,81,80,65-80,2,WHITE,1,F,Y,Y,N,Week 8,8,WEEK 8,8,69,2014-03-31,CIBICVAL,CIBIC Score,1,4,Y,,2-84,56,13,2,84,DAYS,6001
CDISCPILOT01,704,704,01-704-1074,2014-01-22,2014-03-20,Xanomeline High Dose,81,80,65-80,2,WHITE,1,F,Y,Y,N,Week 16,16,WEEK 8,8,69,2014-03-31,CIBICVAL,CIBIC Score,1,4,Y,LOCF,85-140,112,43,85,140,DAYS,6001
CDISCPILOT01,704,704,01-704-1074,2014-01-22,2014-03-20,Xanomeline High Dose,81,80,65-80,2,WHITE,1,F,Y,Y,N,Week 24,24,WEEK 8,8,69,2014-03-31,CIBICVAL,CIBIC Score,1,4,Y,LOCF,>140,168,99,141,NA,DAYS,6001
CDISCPILOT01,704,704,01-704-1093,2013-03-15,2013-06-17,Xanomeline High Dose,81,79,65-80,2,WHITE,1,M,Y,Y,N,Week 8,8,WEEK 8,8,58,2013-05-11,CIBICVAL,CIBIC Score,1,4,Y,,2-84,56,2,2,84,DAYS,6001
CDISCPILOT01,704,704,01-704-1093,2013-03-15,2013-06-17,Xanomeline High Dose,81,79,65-80,2,WHITE,1,M,Y,Y,N,Week 16,16,WEEK 16,10,98,2013-06-20,CIBICVAL,CIBIC Score,1,4,Y,,85-140,112,14,85,140,DAYS,6002
CDISCPILOT01,704,704,01-704-1093,2013-03-15,2013-06-17,Xanomeline High Dose,81,79,65-80,2,WHITE,1,M,Y,Y,N,Week 24,24,RETRIEVAL,201,286,2013-12-25,CIBICVAL,CIBIC Score,1,6,Y,,>140,168,118,141,NA,DAYS,6003
CDISCPILOT01,704,704,01-704-1114,2013-01-23,2013-07-07,Xanomeline Low Dose,54,77,65-80,2,WHITE,1,M,Y,Y,Y,Week 8,8,WEEK 8,8,63,2013-03-26,CIBICVAL,CIBIC Score,1,4,Y,,2-84,56,7,2,84,DAYS,6001
CDISCPILOT01,704,704,01-704-1114,2013-01-23,2013-07-07,Xanomeline Low Dose,54,77,65-80,2,WHITE,1,M,Y,Y,Y,Week 16,16,WEEK 16,10,112,2013-05-14,CIBICVAL,CIBIC Score,1,4,Y,,85-140,112,0,85,140,DAYS,6002
CDISCPILOT01,704,704,01-704-1114,2013-01-23,2013-07-07,Xanomeline Low Dose,54,77,65-80,2,WHITE,1,M,Y,Y,Y,Week 24,24,WEEK 24,12,167,2013-07-08,CIBICVAL,CIBIC Score,1,4,Y,,>140,168,1,141,NA,DAYS,6003
CDISCPILOT01,704,704,01-704-1120,2013-12-02,2014-02-01,Xanomeline Low Dose,54,71,65-80,2,WHITE,1,F,Y,Y,N,Week 8,8,WEEK 8,8,57,2014-01-27,CIBICVAL,CIBIC Score,1,4,Y,,2-84,56,1,2,84,DAYS,6001
CDISCPILOT01,704,704,01-704-1120,2013-12-02,2014-02-01,Xanomeline Low Dose,54,71,65-80,2,WHITE,1,F,Y,Y,N,Week 8,8,WEEK 12,9,64,2014-02-03,CIBICVAL,CIBIC Score,1,4,,,2-84,56,8,2,84,DAYS,6002
CDISCPILOT01,704,704,01-704-1120,2013-12-02,2014-02-01,Xanomeline Low Dose,54,71,65-80,2,WHITE,1,F,Y,Y,N,Week 16,16,WEEK 12,9,64,2014-02-03,CIBICVAL,CIBIC Score,1,4,Y,LOCF,85-140,112,48,85,140,DAYS,6002
CDISCPILOT01,704,704,01-704-1120,2013-12-02,2014-02-01,Xanomeline Low Dose,54,71,65-80,2,WHITE,1,F,Y,Y,N,Week 24,24,WEEK 12,9,64,2014-02-03,CIBICVAL,CIBIC Score,1,4,Y,LOCF,>140,168,104,141,NA,DAYS,6002
CDISCPILOT01,704,704,01-704-1127,2013-10-02,2014-03-31,Placebo,0,84,>80,3,WHITE,1,F,Y,Y,Y,Week 8,8,WEEK 8,8,56,2013-11-26,CIBICVAL,CIBIC Score,1,4,Y,,2-84,56,0,2,84,DAYS,6001
CDISCPILOT01,704,704,01-704-1127,2013-10-02,2014-03-31,Placebo,0,84,>80,3,WHITE,1,F,Y,Y,Y,Week 16,16,WEEK 16,10,112,2014-01-21,CIBICVAL,CIBIC Score,1,5,Y,,85-140,112,0,85,140,DAYS,6002
CDISCPILOT01,704,704,01-704-1127,2013-10-02,2014-03-31,Placebo,0,84,>80,3,WHITE,1,F,Y,Y,Y,Week 24,24,WEEK 24,12,167,2014-03-17,CIBICVAL,CIBIC Score,1,5,Y,,>140,168,1,141,NA,DAYS,6003
CDISCPILOT01,704,704,01-704-1135,2013-10-31,2014-05-16,Xanomeline Low Dose,54,74,65-80,2,WHITE,1,F,Y,Y,Y,Week 8,8,WEEK 8,8,56,2013-12-25,CIBICVAL,CIBIC Score,1,4,Y,,2-84,56,0,2,84,DAYS,6001
CDISCPILOT01,704,704,01-704-1135,2013-10-31,2014-05-16,Xanomeline Low Dose,54,74,65-80,2,WHITE,1,F,Y,Y,Y,Week 16,16,WEEK 16,10,112,2014-02-19,CIBICVAL,CIBIC Score,1,4,Y,,85-140,112,0,85,140,DAYS,6002
CDISCPILOT01,704,704,01-704-1135,2013-10-31,2014-05-16,Xanomeline Low Dose,54,74,65-80,2,WHITE,1,F,Y,Y,Y,Week 24,24,WEEK 24,12,183,2014-05-01,CIBICVAL,CIBIC Score,1,6,Y,,>140,168,15,141,NA,DAYS,6003
CDISCPILOT01,704,704,01-704-1164,2012-09-19,2013-04-04,Placebo,0,67,65-80,2,WHITE,1,F,Y,Y,Y,Week 8,8,WEEK 8,8,58,2012-11-15,CIBICVAL,CIBIC Score,1,4,Y,,2-84,56,2,2,84,DAYS,6001
CDISCPILOT01,704,704,01-704-1164,2012-09-19,2013-04-04,Placebo,0,67,65-80,2,WHITE,1,F,Y,Y,Y,Week 16,16,WEEK 16,10,118,2013-01-14,CIBICVAL,CIBIC Score,1,5,Y,,85-140,112,6,85,140,DAYS,6002
CDISCPILOT01,704,704,01-704-1164,2012-09-19,2013-04-04,Placebo,0,67,65-80,2,WHITE,1,F,Y,Y,Y,Week 24,24,WEEK 24,12,180,2013-03-17,CIBICVAL,CIBIC Score,1,5,Y,,>140,168,12,141,NA,DAYS,6003
CDISCPILOT01,704,704,01-704-1218,2012-11-19,2013-05-27,Xanomeline Low Dose,54,81,>80,3,WHITE,1,F,Y,Y,Y,Week 8,8,WEEK 8,8,57,2013-01-14,CIBICVAL,CIBIC Score,1,5,Y,,2-84,56,1,2,84,DAYS,6001
CDISCPILOT01,704,704,01-704-1218,2012-11-19,2013-05-27,Xanomeline Low Dose,54,81,>80,3,WHITE,1,F,Y,Y,Y,Week 16,16,WEEK 16,10,120,2013-03-18,CIBICVAL,CIBIC Score,1,5,Y,,85-140,112,8,85,140,DAYS,6002
CDISCPILOT01,704,704,01-704-1218,2012-11-19,2013-05-27,Xanomeline Low Dose,54,81,>80,3,WHITE,1,F,Y,Y,Y,Week 24,24,WEEK 24,12,176,2013-05-13,CIBICVAL,CIBIC Score,1,5,Y,,>140,168,8,141,NA,DAYS,6003
CDISCPILOT01,704,704,01-704-1233,2013-03-21,2013-07-14,Placebo,0,87,>80,3,WHITE,1,F,Y,Y,N,Week 16,16,WEEK 16,10,113,2013-07-11,CIBICVAL,CIBIC Score,1,5,Y,,85-140,112,1,85,140,DAYS,6001
CDISCPILOT01,704,704,01-704-1233,2013-03-21,2013-07-14,Placebo,0,87,>80,3,WHITE,1,F,Y,Y,N,Week 24,24,WEEK 16,10,113,2013-07-11,CIBICVAL,CIBIC Score,1,5,Y,LOCF,>140,168,55,141,NA,DAYS,6001
CDISCPILOT01,704,704,01-704-1241,2013-08-25,2013-10-09,Xanomeline High Dose,81,86,>80,3,WHITE,1,M,Y,Y,N,Week 8,8,WEEK 8,8,68,2013-10-31,CIBICVAL,CIBIC Score,1,4,Y,,2-84,56,12,2,84,DAYS,6001
CDISCPILOT01,704,704,01-704-1241,2013-08-25,2013-10-09,Xanomeline High Dose,81,86,>80,3,WHITE,1,M,Y,Y,N,Week 16,16,WEEK 8,8,68,2013-10-31,CIBICVAL,CIBIC Score,1,4,Y,LOCF,85-140,112,44,85,140,DAYS,6001
CDISCPILOT01,704,704,01-704-1241,2013-08-25,2013-10-09,Xanomeline High Dose,81,86,>80,3,WHITE,1,M,Y,Y,N,Week 24,24,WEEK 8,8,68,2013-10-31,CIBICVAL,CIBIC Score,1,4,Y,LOCF,>140,168,100,141,NA,DAYS,6001
CDISCPILOT01,704,704,01-704-1260,2012-08-30,2012-11-04,Placebo,0,71,65-80,2,WHITE,1,F,Y,Y,N,Week 8,8,WEEK 8,8,56,2012-10-24,CIBICVAL,CIBIC Score,1,4,Y,,2-84,56,0,2,84,DAYS,6001
CDISCPILOT01,704,704,01-704-1260,2012-08-30,2012-11-04,Placebo,0,71,65-80,2,WHITE,1,F,Y,Y,N,Week 16,16,WEEK 8,8,56,2012-10-24,CIBICVAL,CIBIC Score,1,4,Y,LOCF,85-140,112,56,85,140,DAYS,6001
CDISCPILOT01,704,704,01-704-1260,2012-08-30,2012-11-04,Placebo,0,71,65-80,2,WHITE,1,F,Y,Y,N,Week 24,24,WEEK 8,8,56,2012-10-24,CIBICVAL,CIBIC Score,1,4,Y,LOCF,>140,168,112,141,NA,DAYS,6001
CDISCPILOT01,704,704,01-704-1266,2013-10-13,2013-12-06,Xanomeline High Dose,81,82,>80,3,WHITE,1,M,Y,Y,N,Week 8,8,WEEK 8,8,55,2013-12-06,CIBICVAL,CIBIC Score,1,4,Y,,2-84,56,1,2,84,DAYS,6001
CDISCPILOT01,704,704,01-704-1266,2013-10-13,2013-12-06,Xanomeline High Dose,81,82,>80,3,WHITE,1,M,Y,Y,N,Week 16,16,WEEK 8,8,55,2013-12-06,CIBICVAL,CIBIC Score,1,4,Y,LOCF,85-140,112,57,85,140,DAYS,6001
CDISCPILOT01,704,704,01-704-1266,2013-10-13,2013-12-06,Xanomeline High Dose,81,82,>80,3,WHITE,1,M,Y,Y,N,Week 24,24,WEEK 8,8,55,2013-12-06,CIBICVAL,CIBIC Score,1,4,Y,LOCF,>140,168,113,141,NA,DAYS,6001
CDISCPILOT01,704,704,01-704-1325,2014-04-23,2014-07-04,Xanomeline Low Dose,54,81,>80,3,WHITE,1,M,Y,Y,N,Week 8,8,WEEK 8,8,57,2014-06-18,CIBICVAL,CIBIC Score,1,4,Y,,2-84,56,1,2,84,DAYS,6001
CDISCPILOT01,704,704,01-704-1325,2014-04-23,2014-07-04,Xanomeline Low Dose,54,81,>80,3,WHITE,1,M,Y,Y,N,Week 16,16,WEEK 16,10,106,2014-08-06,CIBICVAL,CIBIC Score,1,4,Y,,85-140,112,6,85,140,DAYS,6002
CDISCPILOT01,704,704,01-704-1325,2014-04-23,2014-07-04,Xanomeline Low Dose,54,81,>80,3,WHITE,1,M,Y,Y,N,Week 24,24,WEEK 16,10,106,2014-08-06,CIBICVAL,CIBIC Score,1,4,Y,LOCF,>140,168,62,141,NA,DAYS,6002
CDISCPILOT01,704,704,01-704-1332,2013-12-09,2014-02-14,Xanomeline High Dose,81,80,65-80,2,WHITE,1,M,Y,Y,N,Week 8,8,WEEK 8,8,57,2014-02-03,CIBICVAL,CIBIC Score,1,4,Y,,2-84,56,1,2,84,DAYS,6001
CDISCPILOT01,704,704,01-704-1332,2013-12-09,2014-02-14,Xanomeline High Dose,81,80,65-80,2,WHITE,1,M,Y,Y,N,Week 16,16,WEEK 8,8,57,2014-02-03,CIBICVAL,CIBIC Score,1,4,Y,LOCF,85-140,112,55,85,140,DAYS,6001
CDISCPILOT01,704,704,01-704-1332,2013-12-09,2014-02-14,Xanomeline High Dose,81,80,65-80,2,WHITE,1,M,Y,Y,N,Week 24,24,WEEK 8,8,57,2014-02-03,CIBICVAL,CIBIC Score,1,4,Y,LOCF,>140,168,111,141,NA,DAYS,6001
CDISCPILOT01,704,704,01-704-1351,2013-10-12,2014-04-18,Placebo,0,70,65-80,2,WHITE,1,M,Y,Y,Y,Week 8,8,WEEK 8,8,52,2013-12-02,CIBICVAL,CIBIC Score,1,4,Y,,2-84,56,4,2,84,DAYS,6001
CDISCPILOT01,704,704,01-704-1351,2013-10-12,2014-04-18,Placebo,0,70,65-80,2,WHITE,1,M,Y,Y,Y,Week 16,16,WEEK 16,10,107,2014-01-26,CIBICVAL,CIBIC Score,1,4,Y,,85-140,112,5,85,140,DAYS,6002
CDISCPILOT01,704,704,01-704-1351,2013-10-12,2014-04-18,Placebo,0,70,65-80,2,WHITE,1,M,Y,Y,Y,Week 24,24,WEEK 24,12,175,2014-04-04,CIBICVAL,CIBIC Score,1,5,Y,,>140,168,7,141,NA,DAYS,6003
CDISCPILOT01,704,704,01-704-1388,2012-12-07,2013-06-11,Placebo,0,81,>80,3,WHITE,1,M,Y,Y,Y,Week 8,8,WEEK 8,8,55,2013-01-30,CIBICVAL,CIBIC Score,1,4,Y,,2-84,56,1,2,84,DAYS,6001
CDISCPILOT01,704,704,01-704-1388,2012-12-07,2013-06-11,Placebo,0,81,>80,3,WHITE,1,M,Y,Y,Y,Week 16,16,WEEK 16,10,111,2013-03-27,CIBICVAL,CIBIC Score,1,4,Y,,85-140,112,1,85,140,DAYS,6002
CDISCPILOT01,704,704,01-704-1388,2012-12-07,2013-06-11,Placebo,0,81,>80,3,WHITE,1,M,Y,Y,Y,Week 24,24,WEEK 24,12,168,2013-05-23,CIBICVAL,CIBIC Score,1,4,Y,,>140,168,0,141,NA,DAYS,6003
CDISCPILOT01,704,704,01-704-1435,2012-11-17,2013-01-09,Placebo,0,74,65-80,2,WHITE,1,M,Y,Y,N,Week 8,8,WEEK 8,8,57,2013-01-12,CIBICVAL,CIBIC Score,1,4,Y,,2-84,56,1,2,84,DAYS,6001
CDISCPILOT01,704,704,01-704-1435,2012-11-17,2013-01-09,Placebo,0,74,65-80,2,WHITE,1,M,Y,Y,N,Week 16,16,WEEK 8,8,57,2013-01-12,CIBICVAL,CIBIC Score,1,4,Y,LOCF,85-140,112,55,85,140,DAYS,6001
CDISCPILOT01,704,704,01-704-1435,2012-11-17,2013-01-09,Placebo,0,74,65-80,2,WHITE,1,M,Y,Y,N,Week 24,24,WEEK 8,8,57,2013-01-12,CIBICVAL,CIBIC Score,1,4,Y,LOCF,>140,168,111,141,NA,DAYS,6001
CDISCPILOT01,704,704,01-704-1445,2014-05-11,2014-11-01,Placebo,0,75,65-80,2,WHITE,1,M,Y,Y,Y,Week 8,8,WEEK 8,8,60,2014-07-09,CIBICVAL,CIBIC Score,1,6,Y,,2-84,56,4,2,84,DAYS,6001
CDISCPILOT01,704,704,01-704-1445,2014-05-11,2014-11-01,Placebo,0,75,65-80,2,WHITE,1,M,Y,Y,Y,Week 16,16,WEEK 16,10,116,2014-09-03,CIBICVAL,CIBIC Score,1,5,Y,,85-140,112,4,85,140,DAYS,6002
CDISCPILOT01,704,704,01-704-1445,2014-05-11,2014-11-01,Placebo,0,75,65-80,2,WHITE,1,M,Y,Y,Y,Week 24,24,WEEK 16,10,116,2014-09-03,CIBICVAL,CIBIC Score,1,5,Y,LOCF,>140,168,52,141,NA,DAYS,6002
CDISCPILOT01,705,705,01-705-1031,2013-11-27,2014-05-11,Xanomeline Low Dose,54,56,<65,1,WHITE,1,F,Y,Y,Y,Week 8,8,WEEK 8,8,58,2014-01-23,CIBICVAL,CIBIC Score,1,4,Y,,2-84,56,2,2,84,DAYS,6001
CDISCPILOT01,705,705,01-705-1031,2013-11-27,2014-05-11,Xanomeline Low Dose,54,56,<65,1,WHITE,1,F,Y,Y,Y,Week 16,16,WEEK 16,10,114,2014-03-20,CIBICVAL,CIBIC Score,1,4,Y,,85-140,112,2,85,140,DAYS,6002
CDISCPILOT01,705,705,01-705-1031,2013-11-27,2014-05-11,Xanomeline Low Dose,54,56,<65,1,WHITE,1,F,Y,Y,Y,Week 24,24,WEEK 24,12,166,2014-05-11,CIBICVAL,CIBIC Score,1,4,Y,,>140,168,2,141,NA,DAYS,6003
CDISCPILOT01,705,705,01-705-1059,2013-08-05,2013-12-05,Placebo,0,66,65-80,2,WHITE,1,F,Y,Y,N,Week 8,8,WEEK 8,8,60,2013-10-03,CIBICVAL,CIBIC Score,1,3,Y,,2-84,56,4,2,84,DAYS,6001
CDISCPILOT01,705,705,01-705-1059,2013-08-05,2013-12-05,Placebo,0,66,65-80,2,WHITE,1,F,Y,Y,N,Week 16,16,WEEK 16,10,123,2013-12-05,CIBICVAL,CIBIC Score,1,3,Y,,85-140,112,11,85,140,DAYS,6002
CDISCPILOT01,705,705,01-705-1059,2013-08-05,2013-12-05,Placebo,0,66,65-80,2,WHITE,1,F,Y,Y,N,Week 24,24,RETRIEVAL,201,186,2014-02-06,CIBICVAL,CIBIC Score,1,3,Y,,>140,168,18,141,NA,DAYS,6003
CDISCPILOT01,705,705,01-705-1186,2014-01-08,2014-01-26,Placebo,0,84,>80,3,WHITE,1,F,Y,N,N,Week 8,8,WEEK 4,5,31,2014-02-07,CIBICVAL,CIBIC Score,1,4,Y,,2-84,56,25,2,84,DAYS,6001
CDISCPILOT01,705,705,01-705-1186,2014-01-08,2014-01-26,Placebo,0,84,>80,3,WHITE,1,F,Y,N,N,Week 16,16,WEEK 4,5,31,2014-02-07,CIBICVAL,CIBIC Score,1,4,Y,LOCF,85-140,112,81,85,140,DAYS,6001
CDISCPILOT01,705,705,01-705-1186,2014-01-08,2014-01-26,Placebo,0,84,>80,3,WHITE,1,F,Y,N,N,Week 24,24,WEEK 4,5,31,2014-02-07,CIBICVAL,CIBIC Score,1,4,Y,LOCF,>140,168,137,141,NA,DAYS,6001
CDISCPILOT01,705,705,01-705-1199,2013-09-16,2013-09-28,Xanomeline Low Dose,54,87,>80,3,WHITE,1,M,Y,Y,N,Week 8,8,WEEK 2,4,14,2013-09-29,CIBICVAL,CIBIC Score,1,4,Y,,2-84,56,42,2,84,DAYS,6001
CDISCPILOT01,705,705,01-705-1199,2013-09-16,2013-09-28,Xanomeline Low Dose,54,87,>80,3,WHITE,1,M,Y,Y,N,Week 16,16,WEEK 2,4,14,2013-09-29,CIBICVAL,CIBIC Score,1,4,Y,LOCF,85-140,112,98,85,140,DAYS,6001
CDISCPILOT01,705,705,01-705-1199,2013-09-16,2013-09-28,Xanomeline Low Dose,54,87,>80,3,WHITE,1,M,Y,Y,N,Week 24,24,WEEK 2,4,14,2013-09-29,CIBICVAL,CIBIC Score,1,4,Y,LOCF,>140,168,154,141,NA,DAYS,6001
CDISCPILOT01,705,705,01-705-1280,2014-01-17,2014-07-25,Xanomeline High Dose,81,56,<65,1,WHITE,1,F,Y,Y,Y,Week 8,8,WEEK 8,8,64,2014-03-21,CIBICVAL,CIBIC Score,1,4,Y,,2-84,56,8,2,84,DAYS,6001
CDISCPILOT01,705,705,01-705-1280,2014-01-17,2014-07-25,Xanomeline High Dose,81,56,<65,1,WHITE,1,F,Y,Y,Y,Week 16,16,WEEK 16,10,120,2014-05-16,CIBICVAL,CIBIC Score,1,4,Y,,85-140,112,8,85,140,DAYS,6002
CDISCPILOT01,705,705,01-705-1280,2014-01-17,2014-07-25,Xanomeline High Dose,81,56,<65,1,WHITE,1,F,Y,Y,Y,Week 24,24,WEEK 24,12,176,2014-07-11,CIBICVAL,CIBIC Score,1,4,Y,,>140,168,8,141,NA,DAYS,6003
CDISCPILOT01,705,705,01-705-1281,2013-11-28,2014-02-27,Xanomeline High Dose,81,73,65-80,2,BLACK OR AFRICAN AMERICAN,2,F,Y,Y,N,Week 8,8,WEEK 8,8,55,2014-01-21,CIBICVAL,CIBIC Score,1,4,Y,,2-84,56,1,2,84,DAYS,6001
CDISCPILOT01,705,705,01-705-1281,2013-11-28,2014-02-27,Xanomeline High Dose,81,73,65-80,2,BLACK OR AFRICAN AMERICAN,2,F,Y,Y,N,Week 16,16,WEEK 16,10,110,2014-03-17,CIBICVAL,CIBIC Score,1,4,Y,,85-140,112,2,85,140,DAYS,6002
CDISCPILOT01,705,705,01-705-1281,2013-11-28,2014-02-27,Xanomeline High Dose,81,73,65-80,2,BLACK OR AFRICAN AMERICAN,2,F,Y,Y,N,Week 24,24,WEEK 16,10,110,2014-03-17,CIBICVAL,CIBIC Score,1,4,Y,LOCF,>140,168,58,141,NA,DAYS,6002
CDISCPILOT01,705,705,01-705-1282,2012-12-26,2013-06-24,Placebo,0,70,65-80,2,BLACK OR AFRICAN AMERICAN,2,F,Y,Y,Y,Week 8,8,WEEK 8,8,57,2013-02-20,CIBICVAL,CIBIC Score,1,4,Y,,2-84,56,1,2,84,DAYS,6001
CDISCPILOT01,705,705,01-705-1282,2012-12-26,2013-06-24,Placebo,0,70,65-80,2,BLACK OR AFRICAN AMERICAN,2,F,Y,Y,Y,Week 16,16,WEEK 16,10,112,2013-04-16,CIBICVAL,CIBIC Score,1,4,Y,,85-140,112,0,85,140,DAYS,6002
CDISCPILOT01,705,705,01-705-1282,2012-12-26,2013-06-24,Placebo,0,70,65-80,2,BLACK OR AFRICAN AMERICAN,2,F,Y,Y,Y,Week 24,24,WEEK 24,12,168,2013-06-11,CIBICVAL,CIBIC Score,1,4,Y,,>140,168,0,141,NA,DAYS,6003
CDISCPILOT01,705,705,01-705-1292,2013-10-14,2014-05-13,Xanomeline Low Dose,54,60,<65,1,BLACK OR AFRICAN AMERICAN,2,F,Y,Y,Y,Week 8,8,WEEK 8,8,81,2014-01-02,CIBICVAL,CIBIC Score,1,4,Y,,2-84,56,25,2,84,DAYS,6001
CDISCPILOT01,705,705,01-705-1292,2013-10-14,2014-05-13,Xanomeline Low Dose,54,60,<65,1,BLACK OR AFRICAN AMERICAN,2,F,Y,Y,Y,Week 16,16,WEEK 8,8,81,2014-01-02,CIBICVAL,CIBIC Score,1,4,Y,LOCF,85-140,112,31,85,140,DAYS,6001
CDISCPILOT01,705,705,01-705-1292,2013-10-14,2014-05-13,Xanomeline Low Dose,54,60,<65,1,BLACK OR AFRICAN AMERICAN,2,F,Y,Y,Y,Week 24,24,WEEK 16,10,141,2014-03-03,CIBICVAL,CIBIC Score,1,4,Y,,>140,168,27,141,NA,DAYS,6002
CDISCPILOT01,705,705,01-705-1292,2013-10-14,2014-05-13,Xanomeline Low Dose,54,60,<65,1,BLACK OR AFRICAN AMERICAN,2,F,Y,Y,Y,Week 24,24,WEEK 24,12,197,2014-04-28,CIBICVAL,CIBIC Score,1,3,,,>140,168,29,141,NA,DAYS,6003
CDISCPILOT01,705,705,01-705-1303,2013-12-16,2014-06-02,Xanomeline High Dose,81,72,65-80,2,WHITE,1,M,Y,Y,N,Week 8,8,WEEK 8,8,57,2014-02-10,CIBICVAL,CIBIC Score,1,4,Y,,2-84,56,1,2,84,DAYS,6001
CDISCPILOT01,705,705,01-705-1303,2013-12-16,2014-06-02,Xanomeline High Dose,81,72,65-80,2,WHITE,1,M,Y,Y,N,Week 16,16,WEEK 16,10,113,2014-04-07,CIBICVAL,CIBIC Score,1,4,Y,,85-140,112,1,85,140,DAYS,6002
CDISCPILOT01,705,705,01-705-1303,2013-12-16,2014-06-02,Xanomeline High Dose,81,72,65-80,2,WHITE,1,M,Y,Y,N,Week 24,24,WEEK 16,10,113,2014-04-07,CIBICVAL,CIBIC Score,1,4,Y,LOCF,>140,168,55,141,NA,DAYS,6002
CDISCPILOT01,705,705,01-705-1310,2013-11-02,2014-01-23,Xanomeline High Dose,81,74,65-80,2,WHITE,1,F,Y,Y,N,Week 8,8,WEEK 8,8,55,2013-12-26,CIBICVAL,CIBIC Score,1,4,Y,,2-84,56,1,2,84,DAYS,6001
CDISCPILOT01,705,705,01-705-1310,2013-11-02,2014-01-23,Xanomeline High Dose,81,74,65-80,2,WHITE,1,F,Y,Y,N,Week 8,8,WEEK 12,9,83,2014-01-23,CIBICVAL,CIBIC Score,1,3,,,2-84,56,27,2,84,DAYS,6002
CDISCPILOT01,705,705,01-705-1310,2013-11-02,2014-01-23,Xanomeline High Dose,81,74,65-80,2,WHITE,1,F,Y,Y,N,Week 16,16,WEEK 12,9,83,2014-01-23,CIBICVAL,CIBIC Score,1,4,Y,LOCF,85-140,112,29,85,140,DAYS,6002
CDISCPILOT01,705,705,01-705-1310,2013-11-02,2014-01-23,Xanomeline High Dose,81,74,65-80,2,WHITE,1,F,Y,Y,N,Week 24,24,WEEK 12,9,83,2014-01-23,CIBICVAL,CIBIC Score,1,4,Y,LOCF,>140,168,85,141,NA,DAYS,6002
CDISCPILOT01,705,705,01-705-1349,2013-03-10,2013-09-08,Placebo,0,86,>80,3,WHITE,1,F,Y,Y,Y,Week 8,8,WEEK 8,8,53,2013-05-01,CIBICVAL,CIBIC Score,1,3,Y,,2-84,56,3,2,84,DAYS,6001
CDISCPILOT01,705,705,01-705-1349,2013-03-10,2013-09-08,Placebo,0,86,>80,3,WHITE,1,F,Y,Y,Y,Week 16,16,WEEK 16,10,108,2013-06-25,CIBICVAL,CIBIC Score,1,4,Y,,85-140,112,4,85,140,DAYS,6002
CDISCPILOT01,705,705,01-705-1349,2013-03-10,2013-09-08,Placebo,0,86,>80,3,WHITE,1,F,Y,Y,Y,Week 24,24,WEEK 24,12,169,2013-08-25,CIBICVAL,CIBIC Score,1,3,Y,,>140,168,1,141,NA,DAYS,6003
CDISCPILOT01,705,705,01-705-1393,2012-09-07,2013-02-01,Xanomeline Low Dose,54,84,>80,3,WHITE,1,F,Y,Y,N,Week 8,8,WEEK 8,8,57,2012-11-02,CIBICVAL,CIBIC Score,1,4,Y,,2-84,56,1,2,84,DAYS,6001
CDISCPILOT01,705,705,01-705-1393,2012-09-07,2013-02-01,Xanomeline Low Dose,54,84,>80,3,WHITE,1,F,Y,Y,N,Week 16,16,WEEK 16,10,118,2013-01-02,CIBICVAL,CIBIC Score,1,4,Y,,85-140,112,6,85,140,DAYS,6002
CDISCPILOT01,705,705,01-705-1393,2012-09-07,2013-02-01,Xanomeline Low Dose,54,84,>80,3,WHITE,1,F,Y,Y,N,Week 24,24,WEEK 20,11,167,2013-02-20,CIBICVAL,CIBIC Score,1,5,Y,,>140,168,1,141,NA,DAYS,6003
CDISCPILOT01,705,705,01-705-1431,2013-06-23,2013-12-19,Xanomeline Low Dose,54,68,65-80,2,WHITE,1,F,Y,Y,Y,Week 8,8,WEEK 8,8,60,2013-08-21,CIBICVAL,CIBIC Score,1,4,Y,,2-84,56,4,2,84,DAYS,6001
CDISCPILOT01,705,705,01-705-1431,2013-06-23,2013-12-19,Xanomeline Low Dose,54,68,65-80,2,WHITE,1,F,Y,Y,Y,Week 16,16,WEEK 16,10,117,2013-10-17,CIBICVAL,CIBIC Score,1,3,Y,,85-140,112,5,85,140,DAYS,6002
CDISCPILOT01,705,705,01-705-1431,2013-06-23,2013-12-19,Xanomeline Low Dose,54,68,65-80,2,WHITE,1,F,Y,Y,Y,Week 24,24,WEEK 24,12,166,2013-12-05,CIBICVAL,CIBIC Score,1,3,Y,,>140,168,2,141,NA,DAYS,6003
CDISCPILOT01,706,900,01-706-1041,2013-12-31,2014-07-28,Placebo,0,64,<65,1,BLACK OR AFRICAN AMERICAN,2,F,Y,Y,Y,Week 8,8,WEEK 8,8,64,2014-03-04,CIBICVAL,CIBIC Score,1,4,Y,,2-84,56,8,2,84,DAYS,6001
CDISCPILOT01,706,900,01-706-1041,2013-12-31,2014-07-28,Placebo,0,64,<65,1,BLACK OR AFRICAN AMERICAN,2,F,Y,Y,Y,Week 16,16,WEEK 16,10,127,2014-05-06,CIBICVAL,CIBIC Score,1,5,Y,,85-140,112,15,85,140,DAYS,6002
CDISCPILOT01,706,900,01-706-1041,2013-12-31,2014-07-28,Placebo,0,64,<65,1,BLACK OR AFRICAN AMERICAN,2,F,Y,Y,Y,Week 24,24,WEEK 24,12,197,2014-07-15,CIBICVAL,CIBIC Score,1,4,Y,,>140,168,29,141,NA,DAYS,6003
CDISCPILOT01,706,900,01-706-1049,2013-05-14,2013-06-18,Xanomeline High Dose,81,60,<65,1,WHITE,1,F,Y,Y,N,Week 8,8,WEEK 6,7,43,2013-06-25,CIBICVAL,CIBIC Score,1,4,Y,,2-84,56,13,2,84,DAYS,6001
CDISCPILOT01,706,900,01-706-1049,2013-05-14,2013-06-18,Xanomeline High Dose,81,60,<65,1,WHITE,1,F,Y,Y,N,Week 16,16,WEEK 6,7,43,2013-06-25,CIBICVAL,CIBIC Score,1,4,Y,LOCF,85-140,112,69,85,140,DAYS,6001
CDISCPILOT01,706,900,01-706-1049,2013-05-14,2013-06-18,Xanomeline High Dose,81,60,<65,1,WHITE,1,F,Y,Y,N,Week 24,24,WEEK 6,7,43,2013-06-25,CIBICVAL,CIBIC Score,1,4,Y,LOCF,>140,168,125,141,NA,DAYS,6001
CDISCPILOT01,706,900,01-706-1384,2012-09-15,2012-09-24,Xanomeline Low Dose,54,74,65-80,2,WHITE,1,F,Y,Y,N,Week 8,8,WEEK 2,4,15,2012-09-29,CIBICVAL,CIBIC Score,1,4,Y,,2-84,56,41,2,84,DAYS,6001
CDISCPILOT01,706,900,01-706-1384,2012-09-15,2012-09-24,Xanomeline Low Dose,54,74,65-80,2,WHITE,1,F,Y,Y,N,Week 16,16,WEEK 2,4,15,2012-09-29,CIBICVAL,CIBIC Score,1,4,Y,LOCF,85-140,112,97,85,140,DAYS,6001
CDISCPILOT01,706,900,01-706-1384,2012-09-15,2012-09-24,Xanomeline Low Dose,54,74,65-80,2,WHITE,1,F,Y,Y,N,Week 24,24,WEEK 2,4,15,2012-09-29,CIBICVAL,CIBIC Score,1,4,Y,LOCF,>140,168,153,141,NA,DAYS,6001
CDISCPILOT01,707,900,01-707-1037,2013-12-20,2013-12-24,Xanomeline Low Dose,54,72,65-80,2,WHITE,1,F,Y,Y,N,Week 8,8,WEEK 2,4,20,2014-01-08,CIBICVAL,CIBIC Score,1,4,Y,,2-84,56,36,2,84,DAYS,6001
CDISCPILOT01,707,900,01-707-1037,2013-12-20,2013-12-24,Xanomeline Low Dose,54,72,65-80,2,WHITE,1,F,Y,Y,N,Week 16,16,WEEK 2,4,20,2014-01-08,CIBICVAL,CIBIC Score,1,4,Y,LOCF,85-140,112,92,85,140,DAYS,6001
CDISCPILOT01,707,900,01-707-1037,2013-12-20,2013-12-24,Xanomeline Low Dose,54,72,65-80,2,WHITE,1,F,Y,Y,N,Week 24,24,WEEK 2,4,20,2014-01-08,CIBICVAL,CIBIC Score,1,4,Y,LOCF,>140,168,148,141,NA,DAYS,6001
CDISCPILOT01,707,900,01-707-1206,2013-10-28,2014-04-26,Placebo,0,65,65-80,2,WHITE,1,M,Y,Y,Y,Week 8,8,WEEK 8,8,57,2013-12-23,CIBICVAL,CIBIC Score,1,4,Y,,2-84,56,1,2,84,DAYS,6001
CDISCPILOT01,707,900,01-707-1206,2013-10-28,2014-04-26,Placebo,0,65,65-80,2,WHITE,1,M,Y,Y,Y,Week 16,16,WEEK 16,10,112,2014-02-16,CIBICVAL,CIBIC Score,1,5,Y,,85-140,112,0,85,140,DAYS,6002
CDISCPILOT01,707,900,01-707-1206,2013-10-28,2014-04-26,Placebo,0,65,65-80,2,WHITE,1,M,Y,Y,Y,Week 24,24,WEEK 24,12,168,2014-04-13,CIBICVAL,CIBIC Score,1,4,Y,,>140,168,0,141,NA,DAYS,6003
CDISCPILOT01,708,708,01-708-1019,2013-12-20,2014-01-01,Xanomeline Low Dose,54,68,65-80,2,WHITE,1,M,Y,Y,N,Week 8,8,WEEK 2,4,35,2014-01-23,CIBICVAL,CIBIC Score,1,5,Y,,2-84,56,21,2,84,DAYS,6001
CDISCPILOT01,708,708,01-708-1019,2013-12-20,2014-01-01,Xanomeline Low Dose,54,68,65-80,2,WHITE,1,M,Y,Y,N,Week 16,16,WEEK 2,4,35,2014-01-23,CIBICVAL,CIBIC Score,1,5,Y,LOCF,85-140,112,77,85,140,DAYS,6001
CDISCPILOT01,708,708,01-708-1019,2013-12-20,2014-01-01,Xanomeline Low Dose,54,68,65-80,2,WHITE,1,M,Y,Y,N,Week 24,24,WEEK 2,4,35,2014-01-23,CIBICVAL,CIBIC Score,1,5,Y,LOCF,>140,168,133,141,NA,DAYS,6001
CDISCPILOT01,708,708,01-708-1032,2013-02-09,2013-03-01,Xanomeline Low Dose,54,62,<65,1,WHITE,1,M,Y,Y,N,Week 8,8,WEEK 4,5,29,2013-03-09,CIBICVAL,CIBIC Score,1,4,Y,,2-84,56,27,2,84,DAYS,6001
CDISCPILOT01,708,708,01-708-1032,2013-02-09,2013-03-01,Xanomeline Low Dose,54,62,<65,1,WHITE,1,M,Y,Y,N,Week 16,16,WEEK 4,5,29,2013-03-09,CIBICVAL,CIBIC Score,1,4,Y,LOCF,85-140,112,83,85,140,DAYS,6001
CDISCPILOT01,708,708,01-708-1032,2013-02-09,2013-03-01,Xanomeline Low Dose,54,62,<65,1,WHITE,1,M,Y,Y,N,Week 24,24,WEEK 4,5,29,2013-03-09,CIBICVAL,CIBIC Score,1,4,Y,LOCF,>140,168,139,141,NA,DAYS,6001
CDISCPILOT01,708,708,01-708-1084,2013-05-09,2013-11-11,Xanomeline Low Dose,54,73,65-80,2,WHITE,1,F,Y,Y,Y,Week 8,8,WEEK 8,8,60,2013-07-07,CIBICVAL,CIBIC Score,1,3,Y,,2-84,56,4,2,84,DAYS,6001
CDISCPILOT01,708,708,01-708-1084,2013-05-09,2013-11-11,Xanomeline Low Dose,54,73,65-80,2,WHITE,1,F,Y,Y,Y,Week 16,16,WEEK 16,10,116,2013-09-01,CIBICVAL,CIBIC Score,1,3,Y,,85-140,112,4,85,140,DAYS,6002
CDISCPILOT01,708,708,01-708-1084,2013-05-09,2013-11-11,Xanomeline Low Dose,54,73,65-80,2,WHITE,1,F,Y,Y,Y,Week 24,24,WEEK 24,12,173,2013-10-28,CIBICVAL,CIBIC Score,1,4,Y,,>140,168,5,141,NA,DAYS,6003
CDISCPILOT01,708,708,01-708-1087,2012-10-22,2013-04-28,Placebo,0,74,65-80,2,WHITE,1,F,Y,Y,Y,Week 8,8,WEEK 8,8,62,2012-12-22,CIBICVAL,CIBIC Score,1,3,Y,,2-84,56,6,2,84,DAYS,6001
CDISCPILOT01,708,708,01-708-1087,2012-10-22,2013-04-28,Placebo,0,74,65-80,2,WHITE,1,F,Y,Y,Y,Week 16,16,WEEK 16,10,118,2013-02-16,CIBICVAL,CIBIC Score,1,5,Y,,85-140,112,6,85,140,DAYS,6002
CDISCPILOT01,708,708,01-708-1087,2012-10-22,2013-04-28,Placebo,0,74,65-80,2,WHITE,1,F,Y,Y,Y,Week 24,24,WEEK 24,12,171,2013-04-10,CIBICVAL,CIBIC Score,1,4,Y,,>140,168,3,141,NA,DAYS,6003
CDISCPILOT01,708,708,01-708-1158,2014-02-08,2014-03-21,Placebo,0,81,>80,3,WHITE,1,F,Y,Y,N,Week 8,8,WEEK 6,7,43,2014-03-22,CIBICVAL,CIBIC Score,1,5,Y,,2-84,56,13,2,84,DAYS,6001
CDISCPILOT01,708,708,01-708-1158,2014-02-08,2014-03-21,Placebo,0,81,>80,3,WHITE,1,F,Y,Y,N,Week 16,16,WEEK 6,7,43,2014-03-22,CIBICVAL,CIBIC Score,1,5,Y,LOCF,85-140,112,69,85,140,DAYS,6001
CDISCPILOT01,708,708,01-708-1158,2014-02-08,2014-03-21,Placebo,0,81,>80,3,WHITE,1,F,Y,Y,N,Week 24,24,WEEK 6,7,43,2014-03-22,CIBICVAL,CIBIC Score,1,5,Y,LOCF,>140,168,125,141,NA,DAYS,6001
CDISCPILOT01,708,708,01-708-1171,2012-12-06,2013-06-04,Placebo,0,77,65-80,2,WHITE,1,F,Y,Y,Y,Week 8,8,WEEK 8,8,54,2013-01-28,CIBICVAL,CIBIC Score,1,4,Y,,2-84,56,2,2,84,DAYS,6001
CDISCPILOT01,708,708,01-708-1171,2012-12-06,2013-06-04,Placebo,0,77,65-80,2,WHITE,1,F,Y,Y,Y,Week 16,16,WEEK 16,10,110,2013-03-25,CIBICVAL,CIBIC Score,1,5,Y,,85-140,112,2,85,140,DAYS,6002
CDISCPILOT01,708,708,01-708-1171,2012-12-06,2013-06-04,Placebo,0,77,65-80,2,WHITE,1,F,Y,Y,Y,Week 24,24,WEEK 24,12,166,2013-05-20,CIBICVAL,CIBIC Score,1,5,Y,,>140,168,2,141,NA,DAYS,6003
CDISCPILOT01,708,708,01-708-1178,2013-12-29,2014-04-06,Xanomeline High Dose,81,77,65-80,2,BLACK OR AFRICAN AMERICAN,2,F,Y,Y,N,Week 8,8,WEEK 8,8,71,2014-03-09,CIBICVAL,CIBIC Score,1,5,Y,,2-84,56,15,2,84,DAYS,6001
CDISCPILOT01,708,708,01-708-1178,2013-12-29,2014-04-06,Xanomeline High Dose,81,77,65-80,2,BLACK OR AFRICAN AMERICAN,2,F,Y,Y,N,Week 16,16,WEEK 12,9,99,2014-04-06,CIBICVAL,CIBIC Score,1,3,Y,,85-140,112,13,85,140,DAYS,6002
CDISCPILOT01,708,708,01-708-1178,2013-12-29,2014-04-06,Xanomeline High Dose,81,77,65-80,2,BLACK OR AFRICAN AMERICAN,2,F,Y,Y,N,Week 24,24,WEEK 12,9,99,2014-04-06,CIBICVAL,CIBIC Score,1,3,Y,LOCF,>140,168,69,141,NA,DAYS,6002
CDISCPILOT01,708,708,01-708-1213,2013-02-09,2013-02-22,Xanomeline High Dose,81,76,65-80,2,WHITE,1,F,Y,N,N,Week 8,8,WEEK 4,5,18,2013-02-26,CIBICVAL,CIBIC Score,1,4,Y,,2-84,56,38,2,84,DAYS,6001
CDISCPILOT01,708,708,01-708-1213,2013-02-09,2013-02-22,Xanomeline High Dose,81,76,65-80,2,WHITE,1,F,Y,N,N,Week 16,16,WEEK 4,5,18,2013-02-26,CIBICVAL,CIBIC Score,1,4,Y,LOCF,85-140,112,94,85,140,DAYS,6001
CDISCPILOT01,708,708,01-708-1213,2013-02-09,2013-02-22,Xanomeline High Dose,81,76,65-80,2,WHITE,1,F,Y,N,N,Week 24,24,WEEK 4,5,18,2013-02-26,CIBICVAL,CIBIC Score,1,4,Y,LOCF,>140,168,150,141,NA,DAYS,6001
CDISCPILOT01,708,708,01-708-1216,2012-10-24,2012-11-29,Xanomeline High Dose,81,78,65-80,2,WHITE,1,M,Y,Y,N,Week 8,8,WEEK 6,7,44,2012-12-06,CIBICVAL,CIBIC Score,1,3,Y,,2-84,56,12,2,84,DAYS,6001
CDISCPILOT01,708,708,01-708-1216,2012-10-24,2012-11-29,Xanomeline High Dose,81,78,65-80,2,WHITE,1,M,Y,Y,N,Week 16,16,WEEK 6,7,44,2012-12-06,CIBICVAL,CIBIC Score,1,3,Y,LOCF,85-140,112,68,85,140,DAYS,6001
CDISCPILOT01,708,708,01-708-1216,2012-10-24,2012-11-29,Xanomeline High Dose,81,78,65-80,2,WHITE,1,M,Y,Y,N,Week 24,24,WEEK 6,7,44,2012-12-06,CIBICVAL,CIBIC Score,1,3,Y,LOCF,>140,168,124,141,NA,DAYS,6001
CDISCPILOT01,708,708,01-708-1253,2013-05-07,2013-11-05,Placebo,0,61,<65,1,WHITE,1,M,Y,Y,Y,Week 8,8,WEEK 8,8,64,2013-07-09,CIBICVAL,CIBIC Score,1,3,Y,,2-84,56,8,2,84,DAYS,6001
CDISCPILOT01,708,708,01-708-1253,2013-05-07,2013-11-05,Placebo,0,61,<65,1,WHITE,1,M,Y,Y,Y,Week 16,16,WEEK 16,10,119,2013-09-02,CIBICVAL,CIBIC Score,1,4,Y,,85-140,112,7,85,140,DAYS,6002
CDISCPILOT01,708,708,01-708-1253,2013-05-07,2013-11-05,Placebo,0,61,<65,1,WHITE,1,M,Y,Y,Y,Week 24,24,WEEK 24,12,174,2013-10-27,CIBICVAL,CIBIC Score,1,4,Y,,>140,168,6,141,NA,DAYS,6003
CDISCPILOT01,708,708,01-708-1272,2013-02-06,2013-03-22,Xanomeline Low Dose,54,82,>80,3,WHITE,1,M,Y,Y,N,Week 8,8,WEEK 8,8,58,2013-04-04,CIBICVAL,CIBIC Score,1,3,Y,,2-84,56,2,2,84,DAYS,6001
CDISCPILOT01,708,708,01-708-1272,2013-02-06,2013-03-22,Xanomeline Low Dose,54,82,>80,3,WHITE,1,M,Y,Y,N,Week 16,16,WEEK 8,8,58,2013-04-04,CIBICVAL,CIBIC Score,1,3,Y,LOCF,85-140,112,54,85,140,DAYS,6001
CDISCPILOT01,708,708,01-708-1272,2013-02-06,2013-03-22,Xanomeline Low Dose,54,82,>80,3,WHITE,1,M,Y,Y,N,Week 24,24,WEEK 8,8,58,2013-04-04,CIBICVAL,CIBIC Score,1,3,Y,LOCF,>140,168,110,141,NA,DAYS,6001
CDISCPILOT01,708,708,01-708-1286,2013-09-10,2014-03-08,Placebo,0,80,65-80,2,BLACK OR AFRICAN AMERICAN,2,F,Y,Y,Y,Week 8,8,WEEK 8,8,55,2013-11-03,CIBICVAL,CIBIC Score,1,3,Y,,2-84,56,1,2,84,DAYS,6001
CDISCPILOT01,708,708,01-708-1286,2013-09-10,2014-03-08,Placebo,0,80,65-80,2,BLACK OR AFRICAN AMERICAN,2,F,Y,Y,Y,Week 16,16,WEEK 16,10,111,2013-12-29,CIBICVAL,CIBIC Score,1,4,Y,,85-140,112,1,85,140,DAYS,6002
CDISCPILOT01,708,708,01-708-1286,2013-09-10,2014-03-08,Placebo,0,80,65-80,2,BLACK OR AFRICAN AMERICAN,2,F,Y,Y,Y,Week 24,24,WEEK 24,12,167,2014-02-23,CIBICVAL,CIBIC Score,1,3,Y,,>140,168,1,141,NA,DAYS,6003
CDISCPILOT01,708,708,01-708-1296,2013-06-14,2013-12-12,Placebo,0,57,<65,1,BLACK OR AFRICAN AMERICAN,2,M,Y,Y,Y,Week 8,8,WEEK 8,8,55,2013-08-07,CIBICVAL,CIBIC Score,1,5,Y,,2-84,56,1,2,84,DAYS,6001
CDISCPILOT01,708,708,01-708-1296,2013-06-14,2013-12-12,Placebo,0,57,<65,1,BLACK OR AFRICAN AMERICAN,2,M,Y,Y,Y,Week 16,16,WEEK 16,10,111,2013-10-02,CIBICVAL,CIBIC Score,1,5,Y,,85-140,112,1,85,140,DAYS,6002
CDISCPILOT01,708,708,01-708-1296,2013-06-14,2013-12-12,Placebo,0,57,<65,1,BLACK OR AFRICAN AMERICAN,2,M,Y,Y,Y,Week 24,24,WEEK 24,12,167,2013-11-27,CIBICVAL,CIBIC Score,1,3,Y,,>140,168,1,141,NA,DAYS,6003
CDISCPILOT01,708,708,01-708-1297,2013-01-25,2013-05-03,Xanomeline Low Dose,54,61,<65,1,WHITE,1,M,Y,Y,N,Week 8,8,WEEK 8,8,54,2013-03-19,CIBICVAL,CIBIC Score,1,5,Y,,2-84,56,2,2,84,DAYS,6001
CDISCPILOT01,708,708,01-708-1297,2013-01-25,2013-05-03,Xanomeline Low Dose,54,61,<65,1,WHITE,1,M,Y,Y,N,Week 16,16,WEEK 16,10,104,2013-05-08,CIBICVAL,CIBIC Score,1,5,Y,,85-140,112,8,85,140,DAYS,6002
CDISCPILOT01,708,708,01-708-1297,2013-01-25,2013-05-03,Xanomeline Low Dose,54,61,<65,1,WHITE,1,M,Y,Y,N,Week 24,24,WEEK 16,10,104,2013-05-08,CIBICVAL,CIBIC Score,1,5,Y,LOCF,>140,168,64,141,NA,DAYS,6002
CDISCPILOT01,708,708,01-708-1316,2013-08-23,2014-03-01,Placebo,0,74,65-80,2,WHITE,1,F,Y,Y,Y,Week 8,8,WEEK 8,8,64,2013-10-25,CIBICVAL,CIBIC Score,1,3,Y,,2-84,56,8,2,84,DAYS,6001
CDISCPILOT01,708,708,01-708-1316,2013-08-23,2014-03-01,Placebo,0,74,65-80,2,WHITE,1,F,Y,Y,Y,Week 16,16,WEEK 16,10,121,2013-12-21,CIBICVAL,CIBIC Score,1,4,Y,,85-140,112,9,85,140,DAYS,6002
CDISCPILOT01,708,708,01-708-1316,2013-08-23,2014-03-01,Placebo,0,74,65-80,2,WHITE,1,F,Y,Y,Y,Week 24,24,WEEK 24,12,177,2014-02-15,CIBICVAL,CIBIC Score,1,4,Y,,>140,168,9,141,NA,DAYS,6003
CDISCPILOT01,708,708,01-708-1336,2012-12-07,2013-06-05,Xanomeline High Dose,81,73,65-80,2,WHITE,1,M,Y,Y,Y,Week 8,8,WEEK 8,8,54,2013-01-29,CIBICVAL,CIBIC Score,1,5,Y,,2-84,56,2,2,84,DAYS,6001
CDISCPILOT01,708,708,01-708-1336,2012-12-07,2013-06-05,Xanomeline High Dose,81,73,65-80,2,WHITE,1,M,Y,Y,Y,Week 16,16,WEEK 16,10,111,2013-03-27,CIBICVAL,CIBIC Score,1,5,Y,,85-140,112,1,85,140,DAYS,6002
CDISCPILOT01,708,708,01-708-1336,2012-12-07,2013-06-05,Xanomeline High Dose,81,73,65-80,2,WHITE,1,M,Y,Y,Y,Week 24,24,WEEK 24,12,167,2013-05-22,CIBICVAL,CIBIC Score,1,6,Y,,>140,168,1,141,NA,DAYS,6003
CDISCPILOT01,708,708,01-708-1342,2012-12-29,2013-06-28,Placebo,0,59,<65,1,WHITE,1,F,Y,Y,Y,Week 8,8,WEEK 8,8,57,2013-02-23,CIBICVAL,CIBIC Score,1,3,Y,,2-84,56,1,2,84,DAYS,6001
CDISCPILOT01,708,708,01-708-1342,2012-12-29,2013-06-28,Placebo,0,59,<65,1,WHITE,1,F,Y,Y,Y,Week 16,16,WEEK 16,10,113,2013-04-20,CIBICVAL,CIBIC Score,1,4,Y,,85-140,112,1,85,140,DAYS,6002
CDISCPILOT01,708,708,01-708-1342,2012-12-29,2013-06-28,Placebo,0,59,<65,1,WHITE,1,F,Y,Y,Y,Week 24,24,WEEK 24,12,169,2013-06-15,CIBICVAL,CIBIC Score,1,5,Y,,>140,168,1,141,NA,DAYS,6003
CDISCPILOT01,708,708,01-708-1347,2013-04-20,2013-06-18,Xanomeline High Dose,81,61,<65,1,WHITE,1,F,Y,Y,N,Week 8,8,WEEK 8,8,55,2013-06-13,CIBICVAL,CIBIC Score,1,3,Y,,2-84,56,1,2,84,DAYS,6001
CDISCPILOT01,708,708,01-708-1347,2013-04-20,2013-06-18,Xanomeline High Dose,81,61,<65,1,WHITE,1,F,Y,Y,N,Week 8,8,WEEK 12,9,60,2013-06-18,CIBICVAL,CIBIC Score,1,4,,,2-84,56,4,2,84,DAYS,6002
CDISCPILOT01,708,708,01-708-1347,2013-04-20,2013-06-18,Xanomeline High Dose,81,61,<65,1,WHITE,1,F,Y,Y,N,Week 16,16,WEEK 12,9,60,2013-06-18,CIBICVAL,CIBIC Score,1,3,Y,LOCF,85-140,112,52,85,140,DAYS,6002
CDISCPILOT01,708,708,01-708-1347,2013-04-20,2013-06-18,Xanomeline High Dose,81,61,<65,1,WHITE,1,F,Y,Y,N,Week 24,24,WEEK 12,9,60,2013-06-18,CIBICVAL,CIBIC Score,1,3,Y,LOCF,>140,168,108,141,NA,DAYS,6002
CDISCPILOT01,708,708,01-708-1348,2013-08-05,2014-02-13,Xanomeline Low Dose,54,79,65-80,2,WHITE,1,F,Y,Y,Y,Week 8,8,WEEK 8,8,63,2013-10-06,CIBICVAL,CIBIC Score,1,3,Y,,2-84,56,7,2,84,DAYS,6001
CDISCPILOT01,708,708,01-708-1348,2013-08-05,2014-02-13,Xanomeline Low Dose,54,79,65-80,2,WHITE,1,F,Y,Y,Y,Week 16,16,WEEK 16,10,119,2013-12-01,CIBICVAL,CIBIC Score,1,5,Y,,85-140,112,7,85,140,DAYS,6002
CDISCPILOT01,708,708,01-708-1348,2013-08-05,2014-02-13,Xanomeline Low Dose,54,79,65-80,2,WHITE,1,F,Y,Y,Y,Week 24,24,WEEK 24,12,183,2014-02-03,CIBICVAL,CIBIC Score,1,3,Y,,>140,168,15,141,NA,DAYS,6003
CDISCPILOT01,708,708,01-708-1353,2013-07-04,2013-08-28,Xanomeline Low Dose,54,87,>80,3,BLACK OR AFRICAN AMERICAN,2,F,Y,Y,N,Week 8,8,WEEK 8,8,69,2013-09-10,CIBICVAL,CIBIC Score,1,5,Y,,2-84,56,13,2,84,DAYS,6001
CDISCPILOT01,708,708,01-708-1353,2013-07-04,2013-08-28,Xanomeline Low Dose,54,87,>80,3,BLACK OR AFRICAN AMERICAN,2,F,Y,Y,N,Week 16,16,WEEK 8,8,69,2013-09-10,CIBICVAL,CIBIC Score,1,5,Y,LOCF,85-140,112,43,85,140,DAYS,6001
CDISCPILOT01,708,708,01-708-1353,2013-07-04,2013-08-28,Xanomeline Low Dose,54,87,>80,3,BLACK OR AFRICAN AMERICAN,2,F,Y,Y,N,Week 24,24,WEEK 8,8,69,2013-09-10,CIBICVAL,CIBIC Score,1,5,Y,LOCF,>140,168,99,141,NA,DAYS,6001
CDISCPILOT01,708,708,01-708-1378,2013-09-03,2014-01-28,Placebo,0,67,65-80,2,BLACK OR AFRICAN AMERICAN,2,M,Y,Y,N,Week 8,8,WEEK 8,8,64,2013-11-05,CIBICVAL,CIBIC Score,1,3,Y,,2-84,56,8,2,84,DAYS,6001
CDISCPILOT01,708,708,01-708-1378,2013-09-03,2014-01-28,Placebo,0,67,65-80,2,BLACK OR AFRICAN AMERICAN,2,M,Y,Y,N,Week 16,16,WEEK 16,10,132,2014-01-12,CIBICVAL,CIBIC Score,1,3,Y,,85-140,112,20,85,140,DAYS,6002
CDISCPILOT01,708,708,01-708-1378,2013-09-03,2014-01-28,Placebo,0,67,65-80,2,BLACK OR AFRICAN AMERICAN,2,M,Y,Y,N,Week 24,24,WEEK 20,11,148,2014-01-28,CIBICVAL,CIBIC Score,1,3,Y,,>140,168,20,141,NA,DAYS,6003
CDISCPILOT01,708,708,01-708-1406,2013-12-26,2014-07-02,Xanomeline High Dose,81,71,65-80,2,WHITE,1,F,Y,Y,Y,Week 8,8,WEEK 8,8,61,2014-02-24,CIBICVAL,CIBIC Score,1,3,Y,,2-84,56,5,2,84,DAYS,6001
CDISCPILOT01,708,708,01-708-1406,2013-12-26,2014-07-02,Xanomeline High Dose,81,71,65-80,2,WHITE,1,F,Y,Y,Y,Week 16,16,WEEK 16,10,112,2014-04-16,CIBICVAL,CIBIC Score,1,5,Y,,85-140,112,0,85,140,DAYS,6002
CDISCPILOT01,708,708,01-708-1406,2013-12-26,2014-07-02,Xanomeline High Dose,81,71,65-80,2,WHITE,1,F,Y,Y,Y,Week 24,24,WEEK 24,12,173,2014-06-16,CIBICVAL,CIBIC Score,1,5,Y,,>140,168,5,141,NA,DAYS,6003
CDISCPILOT01,708,708,01-708-1428,2013-11-09,2013-12-14,Xanomeline Low Dose,54,84,>80,3,WHITE,1,F,Y,Y,N,Week 8,8,WEEK 8,8,84,2014-01-31,CIBICVAL,CIBIC Score,1,5,Y,,2-84,56,28,2,84,DAYS,6001
CDISCPILOT01,708,708,01-708-1428,2013-11-09,2013-12-14,Xanomeline Low Dose,54,84,>80,3,WHITE,1,F,Y,Y,N,Week 16,16,WEEK 8,8,84,2014-01-31,CIBICVAL,CIBIC Score,1,5,Y,LOCF,85-140,112,28,85,140,DAYS,6001
CDISCPILOT01,708,708,01-708-1428,2013-11-09,2013-12-14,Xanomeline Low Dose,54,84,>80,3,WHITE,1,F,Y,Y,N,Week 24,24,WEEK 8,8,84,2014-01-31,CIBICVAL,CIBIC Score,1,5,Y,LOCF,>140,168,84,141,NA,DAYS,6001
CDISCPILOT01,709,709,01-709-1001,2013-10-08,2014-04-08,Placebo,0,76,65-80,2,WHITE,1,F,Y,Y,Y,Week 8,8,WEEK 8,8,57,2013-12-03,CIBICVAL,CIBIC Score,1,3,Y,,2-84,56,1,2,84,DAYS,6001
CDISCPILOT01,709,709,01-709-1001,2013-10-08,2014-04-08,Placebo,0,76,65-80,2,WHITE,1,F,Y,Y,Y,Week 16,16,WEEK 16,10,113,2014-01-28,CIBICVAL,CIBIC Score,1,5,Y,,85-140,112,1,85,140,DAYS,6002
CDISCPILOT01,709,709,01-709-1001,2013-10-08,2014-04-08,Placebo,0,76,65-80,2,WHITE,1,F,Y,Y,Y,Week 24,24,WEEK 24,12,161,2014-03-17,CIBICVAL,CIBIC Score,1,5,Y,,>140,168,7,141,NA,DAYS,6003
CDISCPILOT01,709,709,01-709-1020,2012-12-01,2013-06-01,Xanomeline Low Dose,54,72,65-80,2,WHITE,1,F,Y,Y,Y,Week 8,8,WEEK 8,8,57,2013-01-26,CIBICVAL,CIBIC Score,1,2,Y,,2-84,56,1,2,84,DAYS,6001
CDISCPILOT01,709,709,01-709-1020,2012-12-01,2013-06-01,Xanomeline Low Dose,54,72,65-80,2,WHITE,1,F,Y,Y,Y,Week 16,16,WEEK 16,10,113,2013-03-23,CIBICVAL,CIBIC Score,1,3,Y,,85-140,112,1,85,140,DAYS,6002
CDISCPILOT01,709,709,01-709-1020,2012-12-01,2013-06-01,Xanomeline Low Dose,54,72,65-80,2,WHITE,1,F,Y,Y,Y,Week 24,24,WEEK 24,12,169,2013-05-18,CIBICVAL,CIBIC Score,1,4,Y,,>140,168,1,141,NA,DAYS,6003
CDISCPILOT01,709,709,01-709-1029,2012-12-25,2013-06-26,Xanomeline High Dose,81,82,>80,3,WHITE,1,M,Y,Y,Y,Week 8,8,WEEK 8,8,57,2013-02-19,CIBICVAL,CIBIC Score,1,5,Y,,2-84,56,1,2,84,DAYS,6001
CDISCPILOT01,709,709,01-709-1029,2012-12-25,2013-06-26,Xanomeline High Dose,81,82,>80,3,WHITE,1,M,Y,Y,Y,Week 16,16,WEEK 16,10,113,2013-04-16,CIBICVAL,CIBIC Score,1,4,Y,,85-140,112,1,85,140,DAYS,6002
CDISCPILOT01,709,709,01-709-1029,2012-12-25,2013-06-26,Xanomeline High Dose,81,82,>80,3,WHITE,1,M,Y,Y,Y,Week 24,24,WEEK 24,12,170,2013-06-12,CIBICVAL,CIBIC Score,1,5,Y,,>140,168,2,141,NA,DAYS,6003
CDISCPILOT01,709,709,01-709-1081,2014-01-18,2014-04-27,Xanomeline Low Dose,54,86,>80,3,WHITE,1,F,Y,Y,N,Week 8,8,WEEK 8,8,57,2014-03-15,CIBICVAL,CIBIC Score,1,3,Y,,2-84,56,1,2,84,DAYS,6001
CDISCPILOT01,709,709,01-709-1081,2014-01-18,2014-04-27,Xanomeline Low Dose,54,86,>80,3,WHITE,1,F,Y,Y,N,Week 16,16,WEEK 16,10,113,2014-05-10,CIBICVAL,CIBIC Score,1,3,Y,,85-140,112,1,85,140,DAYS,6002
CDISCPILOT01,709,709,01-709-1081,2014-01-18,2014-04-27,Xanomeline Low Dose,54,86,>80,3,WHITE,1,F,Y,Y,N,Week 24,24,WEEK 16,10,113,2014-05-10,CIBICVAL,CIBIC Score,1,3,Y,LOCF,>140,168,55,141,NA,DAYS,6002
CDISCPILOT01,709,709,01-709-1088,2014-04-12,2014-10-09,Placebo,0,69,65-80,2,WHITE,1,M,Y,Y,Y,Week 8,8,WEEK 8,8,51,2014-06-01,CIBICVAL,CIBIC Score,1,3,Y,,2-84,56,5,2,84,DAYS,6001
CDISCPILOT01,709,709,01-709-1088,2014-04-12,2014-10-09,Placebo,0,69,65-80,2,WHITE,1,M,Y,Y,Y,Week 16,16,WEEK 16,10,113,2014-08-02,CIBICVAL,CIBIC Score,1,3,Y,,85-140,112,1,85,140,DAYS,6002
CDISCPILOT01,709,709,01-709-1088,2014-04-12,2014-10-09,Placebo,0,69,65-80,2,WHITE,1,M,Y,Y,Y,Week 24,24,WEEK 24,12,169,2014-09-27,CIBICVAL,CIBIC Score,1,3,Y,,>140,168,1,141,NA,DAYS,6003
CDISCPILOT01,709,709,01-709-1099,2013-10-25,2014-04-25,Xanomeline High Dose,81,79,65-80,2,WHITE,1,F,Y,Y,Y,Week 8,8,WEEK 8,8,63,2013-12-26,CIBICVAL,CIBIC Score,1,3,Y,,2-84,56,7,2,84,DAYS,6001
CDISCPILOT01,709,709,01-709-1099,2013-10-25,2014-04-25,Xanomeline High Dose,81,79,65-80,2,WHITE,1,F,Y,Y,Y,Week 16,16,WEEK 16,10,113,2014-02-14,CIBICVAL,CIBIC Score,1,3,Y,,85-140,112,1,85,140,DAYS,6002
CDISCPILOT01,709,709,01-709-1099,2013-10-25,2014-04-25,Xanomeline High Dose,81,79,65-80,2,WHITE,1,F,Y,Y,Y,Week 24,24,WEEK 24,12,169,2014-04-11,CIBICVAL,CIBIC Score,1,5,Y,,>140,168,1,141,NA,DAYS,6003
CDISCPILOT01,709,709,01-709-1102,2013-01-15,2013-03-27,Xanomeline Low Dose,54,71,65-80,2,WHITE,1,F,Y,Y,N,Week 8,8,WEEK 8,8,57,2013-03-12,CIBICVAL,CIBIC Score,1,5,Y,,2-84,56,1,2,84,DAYS,6001
CDISCPILOT01,709,709,01-709-1102,2013-01-15,2013-03-27,Xanomeline Low Dose,54,71,65-80,2,WHITE,1,F,Y,Y,N,Week 8,8,WEEK 12,9,76,2013-03-31,CIBICVAL,CIBIC Score,1,5,,,2-84,56,20,2,84,DAYS,6002
CDISCPILOT01,709,709,01-709-1102,2013-01-15,2013-03-27,Xanomeline Low Dose,54,71,65-80,2,WHITE,1,F,Y,Y,N,Week 16,16,WEEK 12,9,76,2013-03-31,CIBICVAL,CIBIC Score,1,5,Y,LOCF,85-140,112,36,85,140,DAYS,6002
CDISCPILOT01,709,709,01-709-1102,2013-01-15,2013-03-27,Xanomeline Low Dose,54,71,65-80,2,WHITE,1,F,Y,Y,N,Week 24,24,WEEK 12,9,76,2013-03-31,CIBICVAL,CIBIC Score,1,5,Y,LOCF,>140,168,92,141,NA,DAYS,6002
CDISCPILOT01,709,709,01-709-1168,2013-08-02,2013-09-26,Xanomeline High Dose,81,72,65-80,2,WHITE,1,F,Y,Y,N,Week 8,8,WEEK 8,8,57,2013-09-27,CIBICVAL,CIBIC Score,1,5,Y,,2-84,56,1,2,84,DAYS,6001
CDISCPILOT01,709,709,01-709-1168,2013-08-02,2013-09-26,Xanomeline High Dose,81,72,65-80,2,WHITE,1,F,Y,Y,N,Week 16,16,WEEK 8,8,57,2013-09-27,CIBICVAL,CIBIC Score,1,5,Y,LOCF,85-140,112,55,85,140,DAYS,6001
CDISCPILOT01,709,709,01-709-1168,2013-08-02,2013-09-26,Xanomeline High Dose,81,72,65-80,2,WHITE,1,F,Y,Y,N,Week 24,24,WEEK 8,8,57,2013-09-27,CIBICVAL,CIBIC Score,1,5,Y,LOCF,>140,168,111,141,NA,DAYS,6001
CDISCPILOT01,709,709,01-709-1217,2013-03-04,2013-06-11,Xanomeline Low Dose,54,77,65-80,2,WHITE,1,M,Y,Y,N,Week 8,8,WEEK 8,8,57,2013-04-29,CIBICVAL,CIBIC Score,1,6,Y,,2-84,56,1,2,84,DAYS,6001
CDISCPILOT01,709,709,01-709-1217,2013-03-04,2013-06-11,Xanomeline Low Dose,54,77,65-80,2,WHITE,1,M,Y,Y,N,Week 16,16,WEEK 16,10,114,2013-06-25,CIBICVAL,CIBIC Score,1,5,Y,,85-140,112,2,85,140,DAYS,6002
CDISCPILOT01,709,709,01-709-1217,2013-03-04,2013-06-11,Xanomeline Low Dose,54,77,65-80,2,WHITE,1,M,Y,Y,N,Week 24,24,WEEK 16,10,114,2013-06-25,CIBICVAL,CIBIC Score,1,5,Y,LOCF,>140,168,54,141,NA,DAYS,6002
CDISCPILOT01,709,709,01-709-1238,2013-05-15,2013-08-06,Xanomeline High Dose,81,69,65-80,2,WHITE,1,M,Y,Y,N,Week 8,8,WEEK 8,8,49,2013-07-02,CIBICVAL,CIBIC Score,1,4,Y,,2-84,56,7,2,84,DAYS,6001
CDISCPILOT01,709,709,01-709-1238,2013-05-15,2013-08-06,Xanomeline High Dose,81,69,65-80,2,WHITE,1,M,Y,Y,N,Week 16,16,WEEK 12,9,85,2013-08-07,CIBICVAL,CIBIC Score,1,4,Y,,85-140,112,27,85,140,DAYS,6002
CDISCPILOT01,709,709,01-709-1238,2013-05-15,2013-08-06,Xanomeline High Dose,81,69,65-80,2,WHITE,1,M,Y,Y,N,Week 24,24,WEEK 12,9,85,2013-08-07,CIBICVAL,CIBIC Score,1,4,Y,LOCF,>140,168,83,141,NA,DAYS,6002
CDISCPILOT01,709,709,01-709-1259,2013-01-26,2013-06-13,Placebo,0,82,>80,3,WHITE,1,M,Y,Y,N,Week 8,8,WEEK 8,8,57,2013-03-23,CIBICVAL,CIBIC Score,1,5,Y,,2-84,56,1,2,84,DAYS,6001
CDISCPILOT01,709,709,01-709-1259,2013-01-26,2013-06-13,Placebo,0,82,>80,3,WHITE,1,M,Y,Y,N,Week 16,16,WEEK 16,10,106,2013-05-11,CIBICVAL,CIBIC Score,1,5,Y,,85-140,112,6,85,140,DAYS,6002
CDISCPILOT01,709,709,01-709-1259,2013-01-26,2013-06-13,Placebo,0,82,>80,3,WHITE,1,M,Y,Y,N,Week 16,16,WEEK 20,11,139,2013-06-13,CIBICVAL,CIBIC Score,1,5,,,85-140,112,27,85,140,DAYS,6003
CDISCPILOT01,709,709,01-709-1259,2013-01-26,2013-06-13,Placebo,0,82,>80,3,WHITE,1,M,Y,Y,N,Week 24,24,WEEK 20,11,139,2013-06-13,CIBICVAL,CIBIC Score,1,5,Y,LOCF,>140,168,29,141,NA,DAYS,6003
CDISCPILOT01,709,709,01-709-1285,2013-03-24,2013-05-23,Xanomeline Low Dose,54,87,>80,3,WHITE,1,M,Y,Y,N,Week 8,8,WEEK 8,8,57,2013-05-19,CIBICVAL,CIBIC Score,1,3,Y,,2-84,56,1,2,84,DAYS,6001
CDISCPILOT01,709,709,01-709-1285,2013-03-24,2013-05-23,Xanomeline Low Dose,54,87,>80,3,WHITE,1,M,Y,Y,N,Week 8,8,WEEK 12,9,69,2013-05-31,CIBICVAL,CIBIC Score,1,3,,,2-84,56,13,2,84,DAYS,6002
CDISCPILOT01,709,709,01-709-1285,2013-03-24,2013-05-23,Xanomeline Low Dose,54,87,>80,3,WHITE,1,M,Y,Y,N,Week 16,16,WEEK 12,9,69,2013-05-31,CIBICVAL,CIBIC Score,1,3,Y,LOCF,85-140,112,43,85,140,DAYS,6002
CDISCPILOT01,709,709,01-709-1285,2013-03-24,2013-05-23,Xanomeline Low Dose,54,87,>80,3,WHITE,1,M,Y,Y,N,Week 24,24,WEEK 12,9,69,2013-05-31,CIBICVAL,CIBIC Score,1,3,Y,LOCF,>140,168,99,141,NA,DAYS,6002
CDISCPILOT01,709,709,01-709-1301,2013-07-19,2014-01-17,Placebo,0,62,<65,1,WHITE,1,F,Y,Y,Y,Week 8,8,WEEK 8,8,57,2013-09-13,CIBICVAL,CIBIC Score,1,4,Y,,2-84,56,1,2,84,DAYS,6001
CDISCPILOT01,709,709,01-709-1301,2013-07-19,2014-01-17,Placebo,0,62,<65,1,WHITE,1,F,Y,Y,Y,Week 16,16,WEEK 16,10,113,2013-11-08,CIBICVAL,CIBIC Score,1,4,Y,,85-140,112,1,85,140,DAYS,6002
CDISCPILOT01,709,709,01-709-1301,2013-07-19,2014-01-17,Placebo,0,62,<65,1,WHITE,1,F,Y,Y,Y,Week 24,24,WEEK 24,12,170,2014-01-04,CIBICVAL,CIBIC Score,1,5,Y,,>140,168,2,141,NA,DAYS,6003
CDISCPILOT01,709,709,01-709-1306,2014-02-03,2014-06-16,Placebo,0,60,<65,1,WHITE,1,F,Y,Y,N,Week 8,8,WEEK 8,8,59,2014-04-02,CIBICVAL,CIBIC Score,1,4,Y,,2-84,56,3,2,84,DAYS,6001
CDISCPILOT01,709,709,01-709-1306,2014-02-03,2014-06-16,Placebo,0,60,<65,1,WHITE,1,F,Y,Y,N,Week 16,16,WEEK 16,10,115,2014-05-28,CIBICVAL,CIBIC Score,1,5,Y,,85-140,112,3,85,140,DAYS,6002
CDISCPILOT01,709,709,01-709-1306,2014-02-03,2014-06-16,Placebo,0,60,<65,1,WHITE,1,F,Y,Y,N,Week 24,24,WEEK 20,11,143,2014-06-25,CIBICVAL,CIBIC Score,1,5,Y,,>140,168,25,141,NA,DAYS,6003
CDISCPILOT01,709,709,01-709-1309,2013-06-19,2013-12-19,Xanomeline High Dose,81,65,65-80,2,WHITE,1,M,Y,Y,Y,Week 8,8,WEEK 8,8,58,2013-08-15,CIBICVAL,CIBIC Score,1,3,Y,,2-84,56,2,2,84,DAYS,6001
CDISCPILOT01,709,709,01-709-1309,2013-06-19,2013-12-19,Xanomeline High Dose,81,65,65-80,2,WHITE,1,M,Y,Y,Y,Week 16,16,WEEK 16,10,120,2013-10-16,CIBICVAL,CIBIC Score,1,3,Y,,85-140,112,8,85,140,DAYS,6002
CDISCPILOT01,709,709,01-709-1309,2013-06-19,2013-12-19,Xanomeline High Dose,81,65,65-80,2,WHITE,1,M,Y,Y,Y,Week 24,24,WEEK 24,12,170,2013-12-05,CIBICVAL,CIBIC Score,1,4,Y,,>140,168,2,141,NA,DAYS,6003
CDISCPILOT01,709,709,01-709-1312,2014-04-20,2014-10-19,Placebo,0,68,65-80,2,WHITE,1,F,Y,Y,Y,Week 8,8,WEEK 8,8,55,2014-06-13,CIBICVAL,CIBIC Score,1,4,Y,,2-84,56,1,2,84,DAYS,6001
CDISCPILOT01,709,709,01-709-1312,2014-04-20,2014-10-19,Placebo,0,68,65-80,2,WHITE,1,F,Y,Y,Y,Week 16,16,WEEK 16,10,113,2014-08-10,CIBICVAL,CIBIC Score,1,4,Y,,85-140,112,1,85,140,DAYS,6002
CDISCPILOT01,709,709,01-709-1312,2014-04-20,2014-10-19,Placebo,0,68,65-80,2,WHITE,1,F,Y,Y,Y,Week 24,24,WEEK 24,12,169,2014-10-05,CIBICVAL,CIBIC Score,1,5,Y,,>140,168,1,141,NA,DAYS,6003
CDISCPILOT01,709,709,01-709-1326,2013-04-05,2013-10-02,Xanomeline Low Dose,54,75,65-80,2,WHITE,1,F,Y,Y,Y,Week 8,8,WEEK 8,8,58,2013-06-01,CIBICVAL,CIBIC Score,1,4,Y,,2-84,56,2,2,84,DAYS,6001
CDISCPILOT01,709,709,01-709-1326,2013-04-05,2013-10-02,Xanomeline Low Dose,54,75,65-80,2,WHITE,1,F,Y,Y,Y,Week 16,16,WEEK 16,10,113,2013-07-26,CIBICVAL,CIBIC Score,1,4,Y,,85-140,112,1,85,140,DAYS,6002
CDISCPILOT01,709,709,01-709-1326,2013-04-05,2013-10-02,Xanomeline Low Dose,54,75,65-80,2,WHITE,1,F,Y,Y,Y,Week 24,24,WEEK 24,12,169,2013-09-20,CIBICVAL,CIBIC Score,1,3,Y,,>140,168,1,141,NA,DAYS,6003
CDISCPILOT01,709,709,01-709-1329,2013-08-15,2013-08-25,Xanomeline High Dose,81,70,65-80,2,WHITE,1,M,Y,Y,N,Week 8,8,WEEK 2,4,15,2013-08-29,CIBICVAL,CIBIC Score,1,5,Y,,2-84,56,41,2,84,DAYS,6001
CDISCPILOT01,709,709,01-709-1329,2013-08-15,2013-08-25,Xanomeline High Dose,81,70,65-80,2,WHITE,1,M,Y,Y,N,Week 16,16,WEEK 2,4,15,2013-08-29,CIBICVAL,CIBIC Score,1,5,Y,LOCF,85-140,112,97,85,140,DAYS,6001
CDISCPILOT01,709,709,01-709-1329,2013-08-15,2013-08-25,Xanomeline High Dose,81,70,65-80,2,WHITE,1,M,Y,Y,N,Week 24,24,WEEK 2,4,15,2013-08-29,CIBICVAL,CIBIC Score,1,5,Y,LOCF,>140,168,153,141,NA,DAYS,6001
CDISCPILOT01,709,709,01-709-1339,2012-12-23,2013-06-24,Placebo,0,81,>80,3,WHITE,1,M,Y,Y,Y,Week 8,8,WEEK 8,8,59,2013-02-19,CIBICVAL,CIBIC Score,1,4,Y,,2-84,56,3,2,84,DAYS,6001
CDISCPILOT01,709,709,01-709-1339,2012-12-23,2013-06-24,Placebo,0,81,>80,3,WHITE,1,M,Y,Y,Y,Week 16,16,WEEK 16,10,113,2013-04-14,CIBICVAL,CIBIC Score,1,3,Y,,85-140,112,1,85,140,DAYS,6002
CDISCPILOT01,709,709,01-709-1339,2012-12-23,2013-06-24,Placebo,0,81,>80,3,WHITE,1,M,Y,Y,Y,Week 24,24,WEEK 24,12,168,2013-06-08,CIBICVAL,CIBIC Score,1,4,Y,,>140,168,0,141,NA,DAYS,6003
CDISCPILOT01,709,709,01-709-1424,2013-03-03,2013-03-07,Xanomeline High Dose,81,77,65-80,2,WHITE,1,M,Y,Y,N,Week 8,8,WEEK 2,4,6,2013-03-08,CIBICVAL,CIBIC Score,1,4,Y,,2-84,56,50,2,84,DAYS,6001
CDISCPILOT01,709,709,01-709-1424,2013-03-03,2013-03-07,Xanomeline High Dose,81,77,65-80,2,WHITE,1,M,Y,Y,N,Week 16,16,WEEK 2,4,6,2013-03-08,CIBICVAL,CIBIC Score,1,4,Y,LOCF,85-140,112,106,85,140,DAYS,6001
CDISCPILOT01,709,709,01-709-1424,2013-03-03,2013-03-07,Xanomeline High Dose,81,77,65-80,2,WHITE,1,M,Y,Y,N,Week 24,24,WEEK 2,4,6,2013-03-08,CIBICVAL,CIBIC Score,1,4,Y,LOCF,>140,168,162,141,NA,DAYS,6001
CDISCPILOT01,710,710,01-710-1002,2014-01-14,2014-01-18,Xanomeline Low Dose,54,88,>80,3,WHITE,1,M,Y,Y,N,Week 8,8,WEEK 2,4,5,2014-01-18,CIBICVAL,CIBIC Score,1,5,Y,,2-84,56,51,2,84,DAYS,6001
CDISCPILOT01,710,710,01-710-1002,2014-01-14,2014-01-18,Xanomeline Low Dose,54,88,>80,3,WHITE,1,M,Y,Y,N,Week 16,16,WEEK 2,4,5,2014-01-18,CIBICVAL,CIBIC Score,1,5,Y,LOCF,85-140,112,107,85,140,DAYS,6001
CDISCPILOT01,710,710,01-710-1002,2014-01-14,2014-01-18,Xanomeline Low Dose,54,88,>80,3,WHITE,1,M,Y,Y,N,Week 24,24,WEEK 2,4,5,2014-01-18,CIBICVAL,CIBIC Score,1,5,Y,LOCF,>140,168,163,141,NA,DAYS,6001
CDISCPILOT01,710,710,01-710-1006,2013-02-10,2013-08-09,Xanomeline High Dose,81,77,65-80,2,WHITE,1,M,Y,Y,Y,Week 8,8,WEEK 8,8,56,2013-04-06,CIBICVAL,CIBIC Score,1,4,Y,,2-84,56,0,2,84,DAYS,6001
CDISCPILOT01,710,710,01-710-1006,2013-02-10,2013-08-09,Xanomeline High Dose,81,77,65-80,2,WHITE,1,M,Y,Y,Y,Week 16,16,WEEK 16,10,112,2013-06-01,CIBICVAL,CIBIC Score,1,3,Y,,85-140,112,0,85,140,DAYS,6002
CDISCPILOT01,710,710,01-710-1006,2013-02-10,2013-08-09,Xanomeline High Dose,81,77,65-80,2,WHITE,1,M,Y,Y,Y,Week 24,24,WEEK 24,12,168,2013-07-27,CIBICVAL,CIBIC Score,1,4,Y,,>140,168,0,141,NA,DAYS,6003
CDISCPILOT01,710,710,01-710-1027,2014-02-28,2014-08-29,Placebo,0,83,>80,3,WHITE,1,M,Y,Y,Y,Week 8,8,WEEK 8,8,56,2014-04-24,CIBICVAL,CIBIC Score,1,4,Y,,2-84,56,0,2,84,DAYS,6001
CDISCPILOT01,710,710,01-710-1027,2014-02-28,2014-08-29,Placebo,0,83,>80,3,WHITE,1,M,Y,Y,Y,Week 16,16,WEEK 16,10,113,2014-06-20,CIBICVAL,CIBIC Score,1,5,Y,,85-140,112,1,85,140,DAYS,6002
CDISCPILOT01,710,710,01-710-1027,2014-02-28,2014-08-29,Placebo,0,83,>80,3,WHITE,1,M,Y,Y,Y,Week 24,24,WEEK 24,12,173,2014-08-19,CIBICVAL,CIBIC Score,1,5,Y,,>140,168,5,141,NA,DAYS,6003
CDISCPILOT01,710,710,01-710-1045,2013-06-03,2013-08-13,Xanomeline Low Dose,54,83,>80,3,WHITE,1,F,Y,Y,N,Week 8,8,WEEK 8,8,57,2013-07-29,CIBICVAL,CIBIC Score,1,5,Y,,2-84,56,1,2,84,DAYS,6001
CDISCPILOT01,710,710,01-710-1045,2013-06-03,2013-08-13,Xanomeline Low Dose,54,83,>80,3,WHITE,1,F,Y,Y,N,Week 8,8,WEEK 12,9,76,2013-08-17,CIBICVAL,CIBIC Score,1,5,,,2-84,56,20,2,84,DAYS,6002
CDISCPILOT01,710,710,01-710-1045,2013-06-03,2013-08-13,Xanomeline Low Dose,54,83,>80,3,WHITE,1,F,Y,Y,N,Week 16,16,WEEK 12,9,76,2013-08-17,CIBICVAL,CIBIC Score,1,5,Y,LOCF,85-140,112,36,85,140,DAYS,6002
CDISCPILOT01,710,710,01-710-1045,2013-06-03,2013-08-13,Xanomeline Low Dose,54,83,>80,3,WHITE,1,F,Y,Y,N,Week 24,24,WEEK 12,9,76,2013-08-17,CIBICVAL,CIBIC Score,1,5,Y,LOCF,>140,168,92,141,NA,DAYS,6002
CDISCPILOT01,710,710,01-710-1053,2012-12-26,2013-02-10,Xanomeline Low Dose,54,84,>80,3,WHITE,1,F,Y,Y,N,Week 8,8,WEEK 8,8,52,2013-02-15,CIBICVAL,CIBIC Score,1,4,Y,,2-84,56,4,2,84,DAYS,6001
CDISCPILOT01,710,710,01-710-1053,2012-12-26,2013-02-10,Xanomeline Low Dose,54,84,>80,3,WHITE,1,F,Y,Y,N,Week 16,16,WEEK 8,8,52,2013-02-15,CIBICVAL,CIBIC Score,1,4,Y,LOCF,85-140,112,60,85,140,DAYS,6001
CDISCPILOT01,710,710,01-710-1053,2012-12-26,2013-02-10,Xanomeline Low Dose,54,84,>80,3,WHITE,1,F,Y,Y,N,Week 24,24,WEEK 8,8,52,2013-02-15,CIBICVAL,CIBIC Score,1,4,Y,LOCF,>140,168,116,141,NA,DAYS,6001
CDISCPILOT01,710,710,01-710-1060,2013-01-01,2013-07-05,Placebo,0,82,>80,3,WHITE,1,M,Y,Y,Y,Week 8,8,WEEK 8,8,57,2013-02-26,CIBICVAL,CIBIC Score,1,4,Y,,2-84,56,1,2,84,DAYS,6001
CDISCPILOT01,710,710,01-710-1060,2013-01-01,2013-07-05,Placebo,0,82,>80,3,WHITE,1,M,Y,Y,Y,Week 16,16,WEEK 16,10,113,2013-04-23,CIBICVAL,CIBIC Score,1,3,Y,,85-140,112,1,85,140,DAYS,6002
CDISCPILOT01,710,710,01-710-1060,2013-01-01,2013-07-05,Placebo,0,82,>80,3,WHITE,1,M,Y,Y,Y,Week 24,24,WEEK 24,12,172,2013-06-21,CIBICVAL,CIBIC Score,1,4,Y,,>140,168,4,141,NA,DAYS,6003
CDISCPILOT01,710,710,01-710-1070,2012-09-08,2013-01-22,Xanomeline High Dose,81,85,>80,3,WHITE,1,F,Y,Y,N,Week 8,8,WEEK 8,8,59,2012-11-05,CIBICVAL,CIBIC Score,1,5,Y,,2-84,56,3,2,84,DAYS,6001
CDISCPILOT01,710,710,01-710-1070,2012-09-08,2013-01-22,Xanomeline High Dose,81,85,>80,3,WHITE,1,F,Y,Y,N,Week 16,16,WEEK 16,10,112,2012-12-28,CIBICVAL,CIBIC Score,1,4,Y,,85-140,112,0,85,140,DAYS,6002
CDISCPILOT01,710,710,01-710-1070,2012-09-08,2013-01-22,Xanomeline High Dose,81,85,>80,3,WHITE,1,F,Y,Y,N,Week 24,24,WEEK 16,10,112,2012-12-28,CIBICVAL,CIBIC Score,1,4,Y,LOCF,>140,168,56,141,NA,DAYS,6002
CDISCPILOT01,710,710,01-710-1077,2013-11-17,2014-05-18,Placebo,0,76,65-80,2,WHITE,1,F,Y,Y,Y,Week 8,8,WEEK 8,8,57,2014-01-12,CIBICVAL,CIBIC Score,1,4,Y,,2-84,56,1,2,84,DAYS,6001
CDISCPILOT01,710,710,01-710-1077,2013-11-17,2014-05-18,Placebo,0,76,65-80,2,WHITE,1,F,Y,Y,Y,Week 16,16,WEEK 16,10,113,2014-03-09,CIBICVAL,CIBIC Score,1,4,Y,,85-140,112,1,85,140,DAYS,6002
CDISCPILOT01,710,710,01-710-1077,2013-11-17,2014-05-18,Placebo,0,76,65-80,2,WHITE,1,F,Y,Y,Y,Week 24,24,WEEK 24,12,168,2014-05-03,CIBICVAL,CIBIC Score,1,5,Y,,>140,168,0,141,NA,DAYS,6003
CDISCPILOT01,710,710,01-710-1078,2013-09-17,2014-03-23,Placebo,0,81,>80,3,WHITE,1,F,Y,Y,Y,Week 8,8,WEEK 8,8,62,2013-11-17,CIBICVAL,CIBIC Score,1,5,Y,,2-84,56,6,2,84,DAYS,6001
CDISCPILOT01,710,710,01-710-1078,2013-09-17,2014-03-23,Placebo,0,81,>80,3,WHITE,1,F,Y,Y,Y,Week 16,16,WEEK 16,10,118,2014-01-12,CIBICVAL,CIBIC Score,1,4,Y,,85-140,112,6,85,140,DAYS,6002
CDISCPILOT01,710,710,01-710-1078,2013-09-17,2014-03-23,Placebo,0,81,>80,3,WHITE,1,F,Y,Y,Y,Week 24,24,WEEK 24,12,173,2014-03-08,CIBICVAL,CIBIC Score,1,4,Y,,>140,168,5,141,NA,DAYS,6003
CDISCPILOT01,710,710,01-710-1142,2012-10-02,2012-10-20,Xanomeline High Dose,81,76,65-80,2,WHITE,1,F,Y,Y,N,Week 8,8,WEEK 4,5,22,2012-10-23,CIBICVAL,CIBIC Score,1,4,Y,,2-84,56,34,2,84,DAYS,6001
CDISCPILOT01,710,710,01-710-1142,2012-10-02,2012-10-20,Xanomeline High Dose,81,76,65-80,2,WHITE,1,F,Y,Y,N,Week 16,16,WEEK 4,5,22,2012-10-23,CIBICVAL,CIBIC Score,1,4,Y,LOCF,85-140,112,90,85,140,DAYS,6001
CDISCPILOT01,710,710,01-710-1142,2012-10-02,2012-10-20,Xanomeline High Dose,81,76,65-80,2,WHITE,1,F,Y,Y,N,Week 24,24,WEEK 4,5,22,2012-10-23,CIBICVAL,CIBIC Score,1,4,Y,LOCF,>140,168,146,141,NA,DAYS,6001
CDISCPILOT01,710,710,01-710-1154,2014-03-29,2014-04-27,Xanomeline Low Dose,54,84,>80,3,WHITE,1,M,Y,Y,N,Week 8,8,WEEK 6,7,42,2014-05-09,CIBICVAL,CIBIC Score,1,4,Y,,2-84,56,14,2,84,DAYS,6001
CDISCPILOT01,710,710,01-710-1154,2014-03-29,2014-04-27,Xanomeline Low Dose,54,84,>80,3,WHITE,1,M,Y,Y,N,Week 16,16,WEEK 6,7,42,2014-05-09,CIBICVAL,CIBIC Score,1,4,Y,LOCF,85-140,112,70,85,140,DAYS,6001
CDISCPILOT01,710,710,01-710-1154,2014-03-29,2014-04-27,Xanomeline Low Dose,54,84,>80,3,WHITE,1,M,Y,Y,N,Week 24,24,WEEK 6,7,42,2014-05-09,CIBICVAL,CIBIC Score,1,4,Y,LOCF,>140,168,126,141,NA,DAYS,6001
CDISCPILOT01,710,710,01-710-1166,2012-11-30,2013-03-19,Xanomeline Low Dose,54,81,>80,3,WHITE,1,F,Y,Y,N,Week 8,8,WEEK 8,8,57,2013-01-25,CIBICVAL,CIBIC Score,1,4,Y,,2-84,56,1,2,84,DAYS,6001
CDISCPILOT01,710,710,01-710-1166,2012-11-30,2013-03-19,Xanomeline Low Dose,54,81,>80,3,WHITE,1,F,Y,Y,N,Week 16,16,WEEK 8,8,57,2013-01-25,CIBICVAL,CIBIC Score,1,4,Y,LOCF,85-140,112,55,85,140,DAYS,6001
CDISCPILOT01,710,710,01-710-1166,2012-11-30,2013-03-19,Xanomeline Low Dose,54,81,>80,3,WHITE,1,F,Y,Y,N,Week 24,24,WEEK 8,8,57,2013-01-25,CIBICVAL,CIBIC Score,1,4,Y,LOCF,>140,168,111,141,NA,DAYS,6001
CDISCPILOT01,710,710,01-710-1183,2013-11-16,2014-05-17,Placebo,0,80,65-80,2,WHITE,1,F,Y,Y,Y,Week 8,8,WEEK 8,8,57,2014-01-11,CIBICVAL,CIBIC Score,1,3,Y,,2-84,56,1,2,84,DAYS,6001
CDISCPILOT01,710,710,01-710-1183,2013-11-16,2014-05-17,Placebo,0,80,65-80,2,WHITE,1,F,Y,Y,Y,Week 16,16,WEEK 16,10,115,2014-03-10,CIBICVAL,CIBIC Score,1,3,Y,,85-140,112,3,85,140,DAYS,6002
CDISCPILOT01,710,710,01-710-1183,2013-11-16,2014-05-17,Placebo,0,80,65-80,2,WHITE,1,F,Y,Y,Y,Week 24,24,WEEK 24,12,169,2014-05-03,CIBICVAL,CIBIC Score,1,4,Y,,>140,168,1,141,NA,DAYS,6003
CDISCPILOT01,710,710,01-710-1187,2012-11-10,2013-05-12,Xanomeline High Dose,81,78,65-80,2,WHITE,1,F,Y,Y,Y,Week 8,8,WEEK 8,8,58,2013-01-06,CIBICVAL,CIBIC Score,1,5,Y,,2-84,56,2,2,84,DAYS,6001
CDISCPILOT01,710,710,01-710-1187,2012-11-10,2013-05-12,Xanomeline High Dose,81,78,65-80,2,WHITE,1,F,Y,Y,Y,Week 16,16,WEEK 16,10,113,2013-03-02,CIBICVAL,CIBIC Score,1,4,Y,,85-140,112,1,85,140,DAYS,6002
CDISCPILOT01,710,710,01-710-1187,2012-11-10,2013-05-12,Xanomeline High Dose,81,78,65-80,2,WHITE,1,F,Y,Y,Y,Week 24,24,WEEK 24,12,170,2013-04-28,CIBICVAL,CIBIC Score,1,6,Y,,>140,168,2,141,NA,DAYS,6003
CDISCPILOT01,710,710,01-710-1235,2012-09-26,2013-03-27,Xanomeline Low Dose,54,56,<65,1,WHITE,1,F,Y,Y,Y,Week 8,8,WEEK 8,8,57,2012-11-21,CIBICVAL,CIBIC Score,1,4,Y,,2-84,56,1,2,84,DAYS,6001
CDISCPILOT01,710,710,01-710-1235,2012-09-26,2013-03-27,Xanomeline Low Dose,54,56,<65,1,WHITE,1,F,Y,Y,Y,Week 16,16,WEEK 16,10,112,2013-01-15,CIBICVAL,CIBIC Score,1,3,Y,,85-140,112,0,85,140,DAYS,6002
CDISCPILOT01,710,710,01-710-1235,2012-09-26,2013-03-27,Xanomeline Low Dose,54,56,<65,1,WHITE,1,F,Y,Y,Y,Week 24,24,WEEK 24,12,169,2013-03-13,CIBICVAL,CIBIC Score,1,3,Y,,>140,168,1,141,NA,DAYS,6003
CDISCPILOT01,710,710,01-710-1249,2013-12-28,2014-06-28,Xanomeline High Dose,81,79,65-80,2,WHITE,1,M,Y,Y,Y,Week 8,8,WEEK 8,8,57,2014-02-22,CIBICVAL,CIBIC Score,1,4,Y,,2-84,56,1,2,84,DAYS,6001
CDISCPILOT01,710,710,01-710-1249,2013-12-28,2014-06-28,Xanomeline High Dose,81,79,65-80,2,WHITE,1,M,Y,Y,Y,Week 16,16,WEEK 16,10,113,2014-04-19,CIBICVAL,CIBIC Score,1,5,Y,,85-140,112,1,85,140,DAYS,6002
CDISCPILOT01,710,710,01-710-1249,2013-12-28,2014-06-28,Xanomeline High Dose,81,79,65-80,2,WHITE,1,M,Y,Y,Y,Week 24,24,WEEK 24,12,169,2014-06-14,CIBICVAL,CIBIC Score,1,5,Y,,>140,168,1,141,NA,DAYS,6003
CDISCPILOT01,710,710,01-710-1264,2013-06-13,2013-10-11,Placebo,0,78,65-80,2,WHITE,1,M,Y,Y,N,Week 8,8,WEEK 8,8,57,2013-08-08,CIBICVAL,CIBIC Score,1,5,Y,,2-84,56,1,2,84,DAYS,6001
CDISCPILOT01,710,710,01-710-1264,2013-06-13,2013-10-11,Placebo,0,78,65-80,2,WHITE,1,M,Y,Y,N,Week 16,16,WEEK 16,10,111,2013-10-01,CIBICVAL,CIBIC Score,1,4,Y,,85-140,112,1,85,140,DAYS,6002
CDISCPILOT01,710,710,01-710-1264,2013-06-13,2013-10-11,Placebo,0,78,65-80,2,WHITE,1,M,Y,Y,N,Week 16,16,WEEK 20,11,122,2013-10-12,CIBICVAL,CIBIC Score,1,4,,,85-140,112,10,85,140,DAYS,6003
CDISCPILOT01,710,710,01-710-1264,2013-06-13,2013-10-11,Placebo,0,78,65-80,2,WHITE,1,M,Y,Y,N,Week 24,24,WEEK 20,11,122,2013-10-12,CIBICVAL,CIBIC Score,1,4,Y,LOCF,>140,168,46,141,NA,DAYS,6003
CDISCPILOT01,710,710,01-710-1270,2014-02-12,2014-03-01,Xanomeline Low Dose,54,83,>80,3,WHITE,1,F,Y,Y,N,Week 8,8,WEEK 2,4,18,2014-03-01,CIBICVAL,CIBIC Score,1,4,Y,,2-84,56,38,2,84,DAYS,6001
CDISCPILOT01,710,710,01-710-1270,2014-02-12,2014-03-01,Xanomeline Low Dose,54,83,>80,3,WHITE,1,F,Y,Y,N,Week 16,16,WEEK 2,4,18,2014-03-01,CIBICVAL,CIBIC Score,1,4,Y,LOCF,85-140,112,94,85,140,DAYS,6001
CDISCPILOT01,710,710,01-710-1270,2014-02-12,2014-03-01,Xanomeline Low Dose,54,83,>80,3,WHITE,1,F,Y,Y,N,Week 24,24,WEEK 2,4,18,2014-03-01,CIBICVAL,CIBIC Score,1,4,Y,LOCF,>140,168,150,141,NA,DAYS,6001
CDISCPILOT01,710,710,01-710-1278,2012-12-24,2013-02-26,Xanomeline High Dose,81,81,>80,3,WHITE,1,M,Y,Y,N,Week 8,8,WEEK 8,8,60,2013-02-21,CIBICVAL,CIBIC Score,1,3,Y,,2-84,56,4,2,84,DAYS,6001
CDISCPILOT01,710,710,01-710-1278,2012-12-24,2013-02-26,Xanomeline High Dose,81,81,>80,3,WHITE,1,M,Y,Y,N,Week 8,8,WEEK 12,9,70,2013-03-03,CIBICVAL,CIBIC Score,1,3,,,2-84,56,14,2,84,DAYS,6002
CDISCPILOT01,710,710,01-710-1278,2012-12-24,2013-02-26,Xanomeline High Dose,81,81,>80,3,WHITE,1,M,Y,Y,N,Week 16,16,WEEK 12,9,70,2013-03-03,CIBICVAL,CIBIC Score,1,3,Y,LOCF,85-140,112,42,85,140,DAYS,6002
CDISCPILOT01,710,710,01-710-1278,2012-12-24,2013-02-26,Xanomeline High Dose,81,81,>80,3,WHITE,1,M,Y,Y,N,Week 24,24,WEEK 12,9,70,2013-03-03,CIBICVAL,CIBIC Score,1,3,Y,LOCF,>140,168,98,141,NA,DAYS,6002
CDISCPILOT01,710,710,01-710-1300,2012-12-15,2013-02-15,Xanomeline Low Dose,54,78,65-80,2,WHITE,1,F,Y,Y,N,Week 8,8,WEEK 8,8,59,2013-02-11,CIBICVAL,CIBIC Score,1,4,Y,,2-84,56,3,2,84,DAYS,6001
CDISCPILOT01,710,710,01-710-1300,2012-12-15,2013-02-15,Xanomeline Low Dose,54,78,65-80,2,WHITE,1,F,Y,Y,N,Week 8,8,WEEK 12,9,67,2013-02-19,CIBICVAL,CIBIC Score,1,4,,,2-84,56,11,2,84,DAYS,6002
CDISCPILOT01,710,710,01-710-1300,2012-12-15,2013-02-15,Xanomeline Low Dose,54,78,65-80,2,WHITE,1,F,Y,Y,N,Week 16,16,WEEK 12,9,67,2013-02-19,CIBICVAL,CIBIC Score,1,4,Y,LOCF,85-140,112,45,85,140,DAYS,6002
CDISCPILOT01,710,710,01-710-1300,2012-12-15,2013-02-15,Xanomeline Low Dose,54,78,65-80,2,WHITE,1,F,Y,Y,N,Week 24,24,WEEK 12,9,67,2013-02-19,CIBICVAL,CIBIC Score,1,4,Y,LOCF,>140,168,101,141,NA,DAYS,6002
CDISCPILOT01,710,710,01-710-1315,2013-02-27,2013-07-06,Placebo,0,83,>80,3,WHITE,1,F,Y,Y,N,Week 8,8,WEEK 8,8,56,2013-04-23,CIBICVAL,CIBIC Score,1,4,Y,,2-84,56,0,2,84,DAYS,6001
CDISCPILOT01,710,710,01-710-1315,2013-02-27,2013-07-06,Placebo,0,83,>80,3,WHITE,1,F,Y,Y,N,Week 16,16,WEEK 16,10,112,2013-06-18,CIBICVAL,CIBIC Score,1,4,Y,,85-140,112,0,85,140,DAYS,6002
CDISCPILOT01,710,710,01-710-1315,2013-02-27,2013-07-06,Placebo,0,83,>80,3,WHITE,1,F,Y,Y,N,Week 16,16,WEEK 20,11,140,2013-07-16,CIBICVAL,CIBIC Score,1,4,,,85-140,112,28,85,140,DAYS,6003
CDISCPILOT01,710,710,01-710-1315,2013-02-27,2013-07-06,Placebo,0,83,>80,3,WHITE,1,F,Y,Y,N,Week 24,24,WEEK 20,11,140,2013-07-16,CIBICVAL,CIBIC Score,1,4,Y,LOCF,>140,168,28,141,NA,DAYS,6003
CDISCPILOT01,710,710,01-710-1354,2012-11-11,2013-05-01,Xanomeline High Dose,81,73,65-80,2,WHITE,1,M,Y,Y,Y,Week 8,8,WEEK 8,8,57,2013-01-06,CIBICVAL,CIBIC Score,1,5,Y,,2-84,56,1,2,84,DAYS,6001
CDISCPILOT01,710,710,01-710-1354,2012-11-11,2013-05-01,Xanomeline High Dose,81,73,65-80,2,WHITE,1,M,Y,Y,Y,Week 16,16,WEEK 16,10,112,2013-03-02,CIBICVAL,CIBIC Score,1,5,Y,,85-140,112,0,85,140,DAYS,6002
CDISCPILOT01,710,710,01-710-1354,2012-11-11,2013-05-01,Xanomeline High Dose,81,73,65-80,2,WHITE,1,M,Y,Y,Y,Week 24,24,WEEK 24,12,162,2013-04-21,CIBICVAL,CIBIC Score,1,5,Y,,>140,168,6,141,NA,DAYS,6003
CDISCPILOT01,710,710,01-710-1358,2012-09-17,2013-02-09,Xanomeline Low Dose,54,82,>80,3,WHITE,1,M,Y,Y,Y,Week 8,8,WEEK 8,8,59,2012-11-14,CIBICVAL,CIBIC Score,1,4,Y,,2-84,56,3,2,84,DAYS,6001
CDISCPILOT01,710,710,01-710-1358,2012-09-17,2013-02-09,Xanomeline Low Dose,54,82,>80,3,WHITE,1,M,Y,Y,Y,Week 16,16,WEEK 16,10,115,2013-01-09,CIBICVAL,CIBIC Score,1,5,Y,,85-140,112,3,85,140,DAYS,6002
CDISCPILOT01,710,710,01-710-1358,2012-09-17,2013-02-09,Xanomeline Low Dose,54,82,>80,3,WHITE,1,M,Y,Y,Y,Week 24,24,WEEK 16,10,115,2013-01-09,CIBICVAL,CIBIC Score,1,5,Y,LOCF,>140,168,53,141,NA,DAYS,6002
CDISCPILOT01,710,710,01-710-1368,2013-10-23,2014-04-24,Placebo,0,88,>80,3,WHITE,1,F,Y,Y,Y,Week 8,8,WEEK 8,8,58,2013-12-19,CIBICVAL,CIBIC Score,1,4,Y,,2-84,56,2,2,84,DAYS,6001
CDISCPILOT01,710,710,01-710-1368,2013-10-23,2014-04-24,Placebo,0,88,>80,3,WHITE,1,F,Y,Y,Y,Week 16,16,WEEK 16,10,113,2014-02-12,CIBICVAL,CIBIC Score,1,5,Y,,85-140,112,1,85,140,DAYS,6002
CDISCPILOT01,710,710,01-710-1368,2013-10-23,2014-04-24,Placebo,0,88,>80,3,WHITE,1,F,Y,Y,Y,Week 24,24,WEEK 24,12,169,2014-04-09,CIBICVAL,CIBIC Score,1,5,Y,,>140,168,1,141,NA,DAYS,6003
CDISCPILOT01,710,710,01-710-1385,2012-10-29,2013-02-18,Xanomeline Low Dose,54,77,65-80,2,WHITE,1,M,Y,Y,N,Week 8,8,WEEK 8,8,58,2012-12-25,CIBICVAL,CIBIC Score,1,3,Y,,2-84,56,2,2,84,DAYS,6001
CDISCPILOT01,710,710,01-710-1385,2012-10-29,2013-02-18,Xanomeline Low Dose,54,77,65-80,2,WHITE,1,M,Y,Y,N,Week 16,16,WEEK 16,10,113,2013-02-18,CIBICVAL,CIBIC Score,1,2,Y,,85-140,112,1,85,140,DAYS,6002
CDISCPILOT01,710,710,01-710-1385,2012-10-29,2013-02-18,Xanomeline Low Dose,54,77,65-80,2,WHITE,1,M,Y,Y,N,Week 24,24,WEEK 16,10,113,2013-02-18,CIBICVAL,CIBIC Score,1,2,Y,LOCF,>140,168,55,141,NA,DAYS,6002
CDISCPILOT01,710,710,01-710-1408,2013-01-05,2013-07-12,Xanomeline High Dose,81,80,65-80,2,WHITE,1,M,Y,Y,Y,Week 8,8,WEEK 8,8,62,2013-03-07,CIBICVAL,CIBIC Score,1,4,Y,,2-84,56,6,2,84,DAYS,6001
CDISCPILOT01,710,710,01-710-1408,2013-01-05,2013-07-12,Xanomeline High Dose,81,80,65-80,2,WHITE,1,M,Y,Y,Y,Week 16,16,WEEK 16,10,119,2013-05-03,CIBICVAL,CIBIC Score,1,4,Y,,85-140,112,7,85,140,DAYS,6002
CDISCPILOT01,710,710,01-710-1408,2013-01-05,2013-07-12,Xanomeline High Dose,81,80,65-80,2,WHITE,1,M,Y,Y,Y,Week 24,24,WEEK 24,12,175,2013-06-28,CIBICVAL,CIBIC Score,1,4,Y,,>140,168,7,141,NA,DAYS,6003
CDISCPILOT01,711,900,01-711-1012,2013-04-03,2013-04-29,Xanomeline High Dose,81,67,65-80,2,WHITE,1,F,Y,Y,N,Week 8,8,WEEK 4,5,30,2013-05-02,CIBICVAL,CIBIC Score,1,4,Y,,2-84,56,26,2,84,DAYS,6001
CDISCPILOT01,711,900,01-711-1012,2013-04-03,2013-04-29,Xanomeline High Dose,81,67,65-80,2,WHITE,1,F,Y,Y,N,Week 16,16,WEEK 4,5,30,2013-05-02,CIBICVAL,CIBIC Score,1,4,Y,LOCF,85-140,112,82,85,140,DAYS,6001
CDISCPILOT01,711,900,01-711-1012,2013-04-03,2013-04-29,Xanomeline High Dose,81,67,65-80,2,WHITE,1,F,Y,Y,N,Week 24,24,RETRIEVAL,201,169,2013-09-18,CIBICVAL,CIBIC Score,1,5,Y,,>140,168,1,141,NA,DAYS,6002
CDISCPILOT01,711,900,01-711-1036,2012-07-29,2013-02-10,Placebo,0,70,65-80,2,BLACK OR AFRICAN AMERICAN,2,M,Y,Y,Y,Week 8,8,WEEK 8,8,57,2012-09-23,CIBICVAL,CIBIC Score,1,4,Y,,2-84,56,1,2,84,DAYS,6001
CDISCPILOT01,711,900,01-711-1036,2012-07-29,2013-02-10,Placebo,0,70,65-80,2,BLACK OR AFRICAN AMERICAN,2,M,Y,Y,Y,Week 16,16,WEEK 16,10,112,2012-11-17,CIBICVAL,CIBIC Score,1,5,Y,,85-140,112,0,85,140,DAYS,6002
CDISCPILOT01,711,900,01-711-1036,2012-07-29,2013-02-10,Placebo,0,70,65-80,2,BLACK OR AFRICAN AMERICAN,2,M,Y,Y,Y,Week 24,24,WEEK 24,12,169,2013-01-13,CIBICVAL,CIBIC Score,1,5,Y,,>140,168,1,141,NA,DAYS,6003
CDISCPILOT01,711,900,01-711-1143,2013-04-03,2013-05-30,Xanomeline Low Dose,54,76,65-80,2,WHITE,1,F,Y,Y,N,Week 8,8,WEEK 8,8,56,2013-05-28,CIBICVAL,CIBIC Score,1,3,Y,,2-84,56,0,2,84,DAYS,6001
CDISCPILOT01,711,900,01-711-1143,2013-04-03,2013-05-30,Xanomeline Low Dose,54,76,65-80,2,WHITE,1,F,Y,Y,N,Week 8,8,WEEK 12,9,60,2013-06-01,CIBICVAL,CIBIC Score,1,3,,,2-84,56,4,2,84,DAYS,6002
CDISCPILOT01,711,900,01-711-1143,2013-04-03,2013-05-30,Xanomeline Low Dose,54,76,65-80,2,WHITE,1,F,Y,Y,N,Week 16,16,WEEK 12,9,60,2013-06-01,CIBICVAL,CIBIC Score,1,3,Y,LOCF,85-140,112,52,85,140,DAYS,6002
CDISCPILOT01,711,900,01-711-1143,2013-04-03,2013-05-30,Xanomeline Low Dose,54,76,65-80,2,WHITE,1,F,Y,Y,N,Week 24,24,RETRIEVAL,201,173,2013-09-22,CIBICVAL,CIBIC Score,1,4,Y,,>140,168,5,141,NA,DAYS,6003
CDISCPILOT01,713,713,01-713-1043,2013-09-15,2014-03-24,Xanomeline Low Dose,54,78,65-80,2,WHITE,1,F,Y,Y,Y,Week 8,8,WEEK 8,8,58,2013-11-11,CIBICVAL,CIBIC Score,1,4,Y,,2-84,56,2,2,84,DAYS,6001
CDISCPILOT01,713,713,01-713-1043,2013-09-15,2014-03-24,Xanomeline Low Dose,54,78,65-80,2,WHITE,1,F,Y,Y,Y,Week 16,16,WEEK 16,10,111,2014-01-03,CIBICVAL,CIBIC Score,1,4,Y,,85-140,112,1,85,140,DAYS,6002
CDISCPILOT01,713,713,01-713-1043,2013-09-15,2014-03-24,Xanomeline Low Dose,54,78,65-80,2,WHITE,1,F,Y,Y,Y,Week 24,24,WEEK 24,12,167,2014-02-28,CIBICVAL,CIBIC Score,1,4,Y,,>140,168,1,141,NA,DAYS,6003
CDISCPILOT01,713,713,01-713-1073,2014-03-30,2014-10-05,Xanomeline Low Dose,54,74,65-80,2,BLACK OR AFRICAN AMERICAN,2,F,Y,Y,Y,Week 8,8,WEEK 8,8,57,2014-05-25,CIBICVAL,CIBIC Score,1,3,Y,,2-84,56,1,2,84,DAYS,6001
CDISCPILOT01,713,713,01-713-1073,2014-03-30,2014-10-05,Xanomeline Low Dose,54,74,65-80,2,BLACK OR AFRICAN AMERICAN,2,F,Y,Y,Y,Week 16,16,WEEK 16,10,114,2014-07-21,CIBICVAL,CIBIC Score,1,4,Y,,85-140,112,2,85,140,DAYS,6002
CDISCPILOT01,713,713,01-713-1073,2014-03-30,2014-10-05,Xanomeline Low Dose,54,74,65-80,2,BLACK OR AFRICAN AMERICAN,2,F,Y,Y,Y,Week 24,24,WEEK 24,12,176,2014-09-21,CIBICVAL,CIBIC Score,1,5,Y,,>140,168,8,141,NA,DAYS,6003
CDISCPILOT01,713,713,01-713-1106,2012-10-31,2013-05-06,Xanomeline High Dose,81,74,65-80,2,WHITE,1,M,Y,Y,Y,Week 8,8,WEEK 8,8,58,2012-12-27,CIBICVAL,CIBIC Score,1,3,Y,,2-84,56,2,2,84,DAYS,6001
CDISCPILOT01,713,713,01-713-1106,2012-10-31,2013-05-06,Xanomeline High Dose,81,74,65-80,2,WHITE,1,M,Y,Y,Y,Week 16,16,WEEK 16,10,120,2013-02-27,CIBICVAL,CIBIC Score,1,3,Y,,85-140,112,8,85,140,DAYS,6002
CDISCPILOT01,713,713,01-713-1106,2012-10-31,2013-05-06,Xanomeline High Dose,81,74,65-80,2,WHITE,1,M,Y,Y,Y,Week 24,24,WEEK 24,12,174,2013-04-22,CIBICVAL,CIBIC Score,1,3,Y,,>140,168,6,141,NA,DAYS,6003
CDISCPILOT01,713,713,01-713-1179,2013-08-09,2014-02-05,Placebo,0,64,<65,1,WHITE,1,F,Y,Y,Y,Week 8,8,WEEK 8,8,57,2013-10-04,CIBICVAL,CIBIC Score,1,4,Y,,2-84,56,1,2,84,DAYS,6001
CDISCPILOT01,713,713,01-713-1179,2013-08-09,2014-02-05,Placebo,0,64,<65,1,WHITE,1,F,Y,Y,Y,Week 16,16,WEEK 16,10,110,2013-11-26,CIBICVAL,CIBIC Score,1,5,Y,,85-140,112,2,85,140,DAYS,6002
CDISCPILOT01,713,713,01-713-1179,2013-08-09,2014-02-05,Placebo,0,64,<65,1,WHITE,1,F,Y,Y,Y,Week 24,24,WEEK 24,12,169,2014-01-24,CIBICVAL,CIBIC Score,1,2,Y,,>140,168,1,141,NA,DAYS,6003
CDISCPILOT01,713,713,01-713-1209,2013-05-27,2013-11-22,Xanomeline High Dose,81,77,65-80,2,WHITE,1,F,Y,Y,Y,Week 8,8,WEEK 8,8,57,2013-07-22,CIBICVAL,CIBIC Score,1,5,Y,,2-84,56,1,2,84,DAYS,6001
CDISCPILOT01,713,713,01-713-1209,2013-05-27,2013-11-22,Xanomeline High Dose,81,77,65-80,2,WHITE,1,F,Y,Y,Y,Week 16,16,WEEK 16,10,112,2013-09-15,CIBICVAL,CIBIC Score,1,5,Y,,85-140,112,0,85,140,DAYS,6002
CDISCPILOT01,713,713,01-713-1209,2013-05-27,2013-11-22,Xanomeline High Dose,81,77,65-80,2,WHITE,1,F,Y,Y,Y,Week 24,24,WEEK 24,12,172,2013-11-14,CIBICVAL,CIBIC Score,1,5,Y,,>140,168,4,141,NA,DAYS,6003
CDISCPILOT01,713,713,01-713-1256,2012-09-19,2013-03-25,Placebo,0,71,65-80,2,WHITE,1,M,Y,Y,Y,Week 8,8,WEEK 8,8,57,2012-11-14,CIBICVAL,CIBIC Score,1,4,Y,,2-84,56,1,2,84,DAYS,6001
CDISCPILOT01,713,713,01-713-1256,2012-09-19,2013-03-25,Placebo,0,71,65-80,2,WHITE,1,M,Y,Y,Y,Week 16,16,WEEK 16,10,112,2013-01-08,CIBICVAL,CIBIC Score,1,5,Y,,85-140,112,0,85,140,DAYS,6002
CDISCPILOT01,713,713,01-713-1256,2012-09-19,2013-03-25,Placebo,0,71,65-80,2,WHITE,1,M,Y,Y,Y,Week 24,24,WEEK 24,12,172,2013-03-09,CIBICVAL,CIBIC Score,1,6,Y,,>140,168,4,141,NA,DAYS,6003
CDISCPILOT01,713,713,01-713-1269,2014-01-27,2014-07-28,Placebo,0,73,65-80,2,WHITE,1,M,Y,Y,Y,Week 8,8,WEEK 8,8,56,2014-03-23,CIBICVAL,CIBIC Score,1,4,Y,,2-84,56,0,2,84,DAYS,6001
CDISCPILOT01,713,713,01-713-1269,2014-01-27,2014-07-28,Placebo,0,73,65-80,2,WHITE,1,M,Y,Y,Y,Week 16,16,WEEK 16,10,113,2014-05-19,CIBICVAL,CIBIC Score,1,5,Y,,85-140,112,1,85,140,DAYS,6002
CDISCPILOT01,713,713,01-713-1269,2014-01-27,2014-07-28,Placebo,0,73,65-80,2,WHITE,1,M,Y,Y,Y,Week 24,24,WEEK 24,12,168,2014-07-13,CIBICVAL,CIBIC Score,1,5,Y,,>140,168,0,141,NA,DAYS,6003
CDISCPILOT01,713,713,01-713-1448,2014-01-19,2014-05-16,Xanomeline Low Dose,54,71,65-80,2,WHITE,1,F,Y,Y,N,Week 8,8,WEEK 8,8,58,2014-03-17,CIBICVAL,CIBIC Score,1,4,Y,,2-84,56,2,2,84,DAYS,6001
CDISCPILOT01,713,713,01-713-1448,2014-01-19,2014-05-16,Xanomeline Low Dose,54,71,65-80,2,WHITE,1,F,Y,Y,N,Week 16,16,WEEK 16,10,119,2014-05-17,CIBICVAL,CIBIC Score,1,5,Y,,85-140,112,7,85,140,DAYS,6002
CDISCPILOT01,713,713,01-713-1448,2014-01-19,2014-05-16,Xanomeline Low Dose,54,71,65-80,2,WHITE,1,F,Y,Y,N,Week 24,24,WEEK 16,10,119,2014-05-17,CIBICVAL,CIBIC Score,1,5,Y,LOCF,>140,168,49,141,NA,DAYS,6002
CDISCPILOT01,714,900,01-714-1035,2014-04-17,2014-10-16,Placebo,0,88,>80,3,WHITE,1,F,Y,Y,Y,Week 8,8,WEEK 8,8,62,2014-06-17,CIBICVAL,CIBIC Score,1,4,Y,,2-84,56,6,2,84,DAYS,6001
CDISCPILOT01,714,900,01-714-1035,2014-04-17,2014-10-16,Placebo,0,88,>80,3,WHITE,1,F,Y,Y,Y,Week 16,16,WEEK 16,10,112,2014-08-06,CIBICVAL,CIBIC Score,1,4,Y,,85-140,112,0,85,140,DAYS,6002
CDISCPILOT01,714,900,01-714-1035,2014-04-17,2014-10-16,Placebo,0,88,>80,3,WHITE,1,F,Y,Y,Y,Week 24,24,WEEK 24,12,169,2014-10-02,CIBICVAL,CIBIC Score,1,4,Y,,>140,168,1,141,NA,DAYS,6003
CDISCPILOT01,714,900,01-714-1068,2013-08-08,2013-10-08,Xanomeline Low Dose,54,79,65-80,2,WHITE,1,F,Y,Y,N,Week 8,8,WEEK 8,8,57,2013-10-03,CIBICVAL,CIBIC Score,1,4,Y,,2-84,56,1,2,84,DAYS,6001
CDISCPILOT01,714,900,01-714-1068,2013-08-08,2013-10-08,Xanomeline Low Dose,54,79,65-80,2,WHITE,1,F,Y,Y,N,Week 8,8,WEEK 12,9,70,2013-10-16,CIBICVAL,CIBIC Score,1,4,,,2-84,56,14,2,84,DAYS,6002
CDISCPILOT01,714,900,01-714-1068,2013-08-08,2013-10-08,Xanomeline Low Dose,54,79,65-80,2,WHITE,1,F,Y,Y,N,Week 16,16,WEEK 12,9,70,2013-10-16,CIBICVAL,CIBIC Score,1,4,Y,LOCF,85-140,112,42,85,140,DAYS,6002
CDISCPILOT01,714,900,01-714-1068,2013-08-08,2013-10-08,Xanomeline Low Dose,54,79,65-80,2,WHITE,1,F,Y,Y,N,Week 24,24,WEEK 12,9,70,2013-10-16,CIBICVAL,CIBIC Score,1,4,Y,LOCF,>140,168,98,141,NA,DAYS,6002
CDISCPILOT01,714,900,01-714-1195,2013-04-26,2013-10-23,Xanomeline Low Dose,54,75,65-80,2,WHITE,1,M,Y,Y,Y,Week 8,8,WEEK 8,8,56,2013-06-20,CIBICVAL,CIBIC Score,1,3,Y,,2-84,56,0,2,84,DAYS,6001
CDISCPILOT01,714,900,01-714-1195,2013-04-26,2013-10-23,Xanomeline Low Dose,54,75,65-80,2,WHITE,1,M,Y,Y,Y,Week 16,16,WEEK 16,10,106,2013-08-09,CIBICVAL,CIBIC Score,1,2,Y,,85-140,112,6,85,140,DAYS,6002
CDISCPILOT01,714,900,01-714-1195,2013-04-26,2013-10-23,Xanomeline Low Dose,54,75,65-80,2,WHITE,1,M,Y,Y,Y,Week 24,24,WEEK 24,12,168,2013-10-10,CIBICVAL,CIBIC Score,1,3,Y,,>140,168,0,141,NA,DAYS,6003
CDISCPILOT01,714,900,01-714-1288,2013-12-04,2014-06-17,Xanomeline High Dose,81,77,65-80,2,BLACK OR AFRICAN AMERICAN,2,M,Y,Y,Y,Week 8,8,WEEK 8,8,61,2014-02-02,CIBICVAL,CIBIC Score,1,3,Y,,2-84,56,5,2,84,DAYS,6001
CDISCPILOT01,714,900,01-714-1288,2013-12-04,2014-06-17,Xanomeline High Dose,81,77,65-80,2,BLACK OR AFRICAN AMERICAN,2,M,Y,Y,Y,Week 16,16,WEEK 16,10,119,2014-04-01,CIBICVAL,CIBIC Score,1,4,Y,,85-140,112,7,85,140,DAYS,6002
CDISCPILOT01,714,900,01-714-1288,2013-12-04,2014-06-17,Xanomeline High Dose,81,77,65-80,2,BLACK OR AFRICAN AMERICAN,2,M,Y,Y,Y,Week 24,24,WEEK 24,12,175,2014-05-27,CIBICVAL,CIBIC Score,1,3,Y,,>140,168,7,141,NA,DAYS,6003
CDISCPILOT01,714,900,01-714-1375,2013-02-26,2013-09-07,Placebo,0,78,65-80,2,WHITE,1,F,Y,Y,Y,Week 8,8,WEEK 8,8,60,2013-04-26,CIBICVAL,CIBIC Score,1,4,Y,,2-84,56,4,2,84,DAYS,6001
CDISCPILOT01,714,900,01-714-1375,2013-02-26,2013-09-07,Placebo,0,78,65-80,2,WHITE,1,F,Y,Y,Y,Week 16,16,WEEK 16,10,117,2013-06-22,CIBICVAL,CIBIC Score,1,4,Y,,85-140,112,5,85,140,DAYS,6002
CDISCPILOT01,714,900,01-714-1375,2013-02-26,2013-09-07,Placebo,0,78,65-80,2,WHITE,1,F,Y,Y,Y,Week 24,24,WEEK 24,12,179,2013-08-23,CIBICVAL,CIBIC Score,1,3,Y,,>140,168,11,141,NA,DAYS,6003
CDISCPILOT01,714,900,01-714-1425,2013-08-15,2013-08-19,Xanomeline High Dose,81,81,>80,3,WHITE,1,M,Y,Y,N,Week 8,8,WEEK 2,4,8,2013-08-22,CIBICVAL,CIBIC Score,1,4,Y,,2-84,56,48,2,84,DAYS,6001
CDISCPILOT01,714,900,01-714-1425,2013-08-15,2013-08-19,Xanomeline High Dose,81,81,>80,3,WHITE,1,M,Y,Y,N,Week 16,16,WEEK 2,4,8,2013-08-22,CIBICVAL,CIBIC Score,1,4,Y,LOCF,85-140,112,104,85,140,DAYS,6001
CDISCPILOT01,714,900,01-714-1425,2013-08-15,2013-08-19,Xanomeline High Dose,81,81,>80,3,WHITE,1,M,Y,Y,N,Week 24,24,WEEK 2,4,8,2013-08-22,CIBICVAL,CIBIC Score,1,4,Y,LOCF,>140,168,160,141,NA,DAYS,6001
CDISCPILOT01,715,900,01-715-1085,2013-02-16,2013-08-18,Xanomeline Low Dose,54,77,65-80,2,WHITE,1,F,Y,Y,Y,Week 8,8,WEEK 8,8,58,2013-04-14,CIBICVAL,CIBIC Score,1,4,Y,,2-84,56,2,2,84,DAYS,6001
CDISCPILOT01,715,900,01-715-1085,2013-02-16,2013-08-18,Xanomeline Low Dose,54,77,65-80,2,WHITE,1,F,Y,Y,Y,Week 16,16,WEEK 16,10,114,2013-06-09,CIBICVAL,CIBIC Score,1,4,Y,,85-140,112,2,85,140,DAYS,6002
CDISCPILOT01,715,900,01-715-1085,2013-02-16,2013-08-18,Xanomeline Low Dose,54,77,65-80,2,WHITE,1,F,Y,Y,Y,Week 24,24,WEEK 24,12,170,2013-08-04,CIBICVAL,CIBIC Score,1,4,Y,,>140,168,2,141,NA,DAYS,6003
CDISCPILOT01,715,900,01-715-1107,2013-02-26,2013-05-07,Xanomeline Low Dose,54,65,65-80,2,WHITE,1,M,Y,Y,N,Week 8,8,WEEK 8,8,57,2013-04-23,CIBICVAL,CIBIC Score,1,4,Y,,2-84,56,1,2,84,DAYS,6001
CDISCPILOT01,715,900,01-715-1107,2013-02-26,2013-05-07,Xanomeline Low Dose,54,65,65-80,2,WHITE,1,M,Y,Y,N,Week 8,8,WEEK 12,9,77,2013-05-13,CIBICVAL,CIBIC Score,1,4,,,2-84,56,21,2,84,DAYS,6002
CDISCPILOT01,715,900,01-715-1107,2013-02-26,2013-05-07,Xanomeline Low Dose,54,65,65-80,2,WHITE,1,M,Y,Y,N,Week 16,16,WEEK 12,9,77,2013-05-13,CIBICVAL,CIBIC Score,1,4,Y,LOCF,85-140,112,35,85,140,DAYS,6002
CDISCPILOT01,715,900,01-715-1107,2013-02-26,2013-05-07,Xanomeline Low Dose,54,65,65-80,2,WHITE,1,M,Y,Y,N,Week 24,24,RETRIEVAL,201,170,2013-08-14,CIBICVAL,CIBIC Score,1,5,Y,,>140,168,2,141,NA,DAYS,6003
CDISCPILOT01,715,900,01-715-1207,2012-11-18,2013-05-27,Placebo,0,78,65-80,2,WHITE,1,F,Y,Y,Y,Week 8,8,WEEK 8,8,57,2013-01-13,CIBICVAL,CIBIC Score,1,3,Y,,2-84,56,1,2,84,DAYS,6001
CDISCPILOT01,715,900,01-715-1207,2012-11-18,2013-05-27,Placebo,0,78,65-80,2,WHITE,1,F,Y,Y,Y,Week 16,16,WEEK 16,10,113,2013-03-10,CIBICVAL,CIBIC Score,1,4,Y,,85-140,112,1,85,140,DAYS,6002
CDISCPILOT01,715,900,01-715-1207,2012-11-18,2013-05-27,Placebo,0,78,65-80,2,WHITE,1,F,Y,Y,Y,Week 24,24,WEEK 24,12,169,2013-05-05,CIBICVAL,CIBIC Score,1,4,Y,,>140,168,1,141,NA,DAYS,6003
CDISCPILOT01,715,900,01-715-1319,2013-02-17,2013-03-05,Xanomeline High Dose,81,65,65-80,2,WHITE,1,M,Y,Y,N,Week 8,8,WEEK 4,5,30,2013-03-18,CIBICVAL,CIBIC Score,1,5,Y,,2-84,56,26,2,84,DAYS,6001
CDISCPILOT01,715,900,01-715-1319,2013-02-17,2013-03-05,Xanomeline High Dose,81,65,65-80,2,WHITE,1,M,Y,Y,N,Week 16,16,WEEK 4,5,30,2013-03-18,CIBICVAL,CIBIC Score,1,5,Y,LOCF,85-140,112,82,85,140,DAYS,6001
CDISCPILOT01,715,900,01-715-1319,2013-02-17,2013-03-05,Xanomeline High Dose,81,65,65-80,2,WHITE,1,M,Y,Y,N,Week 24,24,WEEK 4,5,30,2013-03-18,CIBICVAL,CIBIC Score,1,5,Y,LOCF,>140,168,138,141,NA,DAYS,6001
CDISCPILOT01,715,900,01-715-1321,2014-02-11,2014-04-21,Xanomeline High Dose,81,75,65-80,2,WHITE,1,F,Y,Y,N,Week 8,8,WEEK 8,8,58,2014-04-09,CIBICVAL,CIBIC Score,1,3,Y,,2-84,56,2,2,84,DAYS,6001
CDISCPILOT01,715,900,01-715-1321,2014-02-11,2014-04-21,Xanomeline High Dose,81,75,65-80,2,WHITE,1,F,Y,Y,N,Week 8,8,WEEK 12,9,71,2014-04-22,CIBICVAL,CIBIC Score,1,5,,,2-84,56,15,2,84,DAYS,6002
CDISCPILOT01,715,900,01-715-1321,2014-02-11,2014-04-21,Xanomeline High Dose,81,75,65-80,2,WHITE,1,F,Y,Y,N,Week 16,16,WEEK 12,9,71,2014-04-22,CIBICVAL,CIBIC Score,1,3,Y,LOCF,85-140,112,41,85,140,DAYS,6002
CDISCPILOT01,715,900,01-715-1321,2014-02-11,2014-04-21,Xanomeline High Dose,81,75,65-80,2,WHITE,1,F,Y,Y,N,Week 24,24,WEEK 12,9,71,2014-04-22,CIBICVAL,CIBIC Score,1,3,Y,LOCF,>140,168,97,141,NA,DAYS,6002
CDISCPILOT01,715,900,01-715-1397,2013-04-03,2013-10-02,Placebo,0,76,65-80,2,WHITE,1,F,Y,Y,Y,Week 8,8,WEEK 8,8,57,2013-05-29,CIBICVAL,CIBIC Score,1,4,Y,,2-84,56,1,2,84,DAYS,6001
CDISCPILOT01,715,900,01-715-1397,2013-04-03,2013-10-02,Placebo,0,76,65-80,2,WHITE,1,F,Y,Y,Y,Week 16,16,WEEK 16,10,113,2013-07-24,CIBICVAL,CIBIC Score,1,4,Y,,85-140,112,1,85,140,DAYS,6002
CDISCPILOT01,715,900,01-715-1397,2013-04-03,2013-10-02,Placebo,0,76,65-80,2,WHITE,1,F,Y,Y,Y,Week 24,24,WEEK 24,12,169,2013-09-18,CIBICVAL,CIBIC Score,1,4,Y,,>140,168,1,141,NA,DAYS,6003
CDISCPILOT01,715,900,01-715-1405,2013-07-06,2013-07-07,Xanomeline Low Dose,54,69,65-80,2,WHITE,1,M,Y,Y,N,Week 8,8,WEEK 2,4,8,2013-07-13,CIBICVAL,CIBIC Score,1,4,Y,,2-84,56,48,2,84,DAYS,6001
CDISCPILOT01,715,900,01-715-1405,2013-07-06,2013-07-07,Xanomeline Low Dose,54,69,65-80,2,WHITE,1,M,Y,Y,N,Week 16,16,WEEK 2,4,8,2013-07-13,CIBICVAL,CIBIC Score,1,4,Y,LOCF,85-140,112,104,85,140,DAYS,6001
CDISCPILOT01,715,900,01-715-1405,2013-07-06,2013-07-07,Xanomeline Low Dose,54,69,65-80,2,WHITE,1,M,Y,Y,N,Week 24,24,RETRIEVAL,201,190,2014-01-11,CIBICVAL,CIBIC Score,1,5,Y,,>140,168,22,141,NA,DAYS,6002
CDISCPILOT01,716,716,01-716-1024,2012-07-09,2013-01-20,Placebo,0,87,>80,3,WHITE,1,F,Y,Y,Y,Week 8,8,WEEK 8,8,57,2012-09-03,CIBICVAL,CIBIC Score,1,4,Y,,2-84,56,1,2,84,DAYS,6001
CDISCPILOT01,716,716,01-716-1024,2012-07-09,2013-01-20,Placebo,0,87,>80,3,WHITE,1,F,Y,Y,Y,Week 16,16,WEEK 16,10,116,2012-11-01,CIBICVAL,CIBIC Score,1,4,Y,,85-140,112,4,85,140,DAYS,6002
CDISCPILOT01,716,716,01-716-1024,2012-07-09,2013-01-20,Placebo,0,87,>80,3,WHITE,1,F,Y,Y,Y,Week 24,24,WEEK 24,12,175,2012-12-30,CIBICVAL,CIBIC Score,1,4,Y,,>140,168,7,141,NA,DAYS,6003
CDISCPILOT01,716,716,01-716-1026,2014-04-02,2014-10-16,Placebo,0,73,65-80,2,WHITE,1,F,Y,Y,Y,Week 8,8,WEEK 8,8,58,2014-05-29,CIBICVAL,CIBIC Score,1,3,Y,,2-84,56,2,2,84,DAYS,6001
CDISCPILOT01,716,716,01-716-1026,2014-04-02,2014-10-16,Placebo,0,73,65-80,2,WHITE,1,F,Y,Y,Y,Week 16,16,WEEK 16,10,121,2014-07-31,CIBICVAL,CIBIC Score,1,5,Y,,85-140,112,9,85,140,DAYS,6002
CDISCPILOT01,716,716,01-716-1026,2014-04-02,2014-10-16,Placebo,0,73,65-80,2,WHITE,1,F,Y,Y,Y,Week 24,24,WEEK 24,12,179,2014-09-27,CIBICVAL,CIBIC Score,1,4,Y,,>140,168,11,141,NA,DAYS,6003
CDISCPILOT01,716,716,01-716-1030,2013-12-28,2014-01-02,Xanomeline High Dose,81,83,>80,3,WHITE,1,F,Y,Y,N,Week 8,8,WEEK 2,4,14,2014-01-10,CIBICVAL,CIBIC Score,1,4,Y,,2-84,56,42,2,84,DAYS,6001
CDISCPILOT01,716,716,01-716-1030,2013-12-28,2014-01-02,Xanomeline High Dose,81,83,>80,3,WHITE,1,F,Y,Y,N,Week 16,16,WEEK 2,4,14,2014-01-10,CIBICVAL,CIBIC Score,1,4,Y,LOCF,85-140,112,98,85,140,DAYS,6001
CDISCPILOT01,716,716,01-716-1030,2013-12-28,2014-01-02,Xanomeline High Dose,81,83,>80,3,WHITE,1,F,Y,Y,N,Week 24,24,WEEK 2,4,14,2014-01-10,CIBICVAL,CIBIC Score,1,4,Y,LOCF,>140,168,154,141,NA,DAYS,6001
CDISCPILOT01,716,716,01-716-1044,2013-04-27,2013-11-03,Placebo,0,74,65-80,2,WHITE,1,M,Y,Y,Y,Week 8,8,WEEK 8,8,63,2013-06-28,CIBICVAL,CIBIC Score,1,2,Y,,2-84,56,7,2,84,DAYS,6001
CDISCPILOT01,716,716,01-716-1044,2013-04-27,2013-11-03,Placebo,0,74,65-80,2,WHITE,1,M,Y,Y,Y,Week 16,16,WEEK 16,10,112,2013-08-16,CIBICVAL,CIBIC Score,1,3,Y,,85-140,112,0,85,140,DAYS,6002
CDISCPILOT01,716,716,01-716-1044,2013-04-27,2013-11-03,Placebo,0,74,65-80,2,WHITE,1,M,Y,Y,Y,Week 24,24,WEEK 24,12,173,2013-10-16,CIBICVAL,CIBIC Score,1,5,Y,,>140,168,5,141,NA,DAYS,6003
CDISCPILOT01,716,716,01-716-1063,2013-05-09,2013-08-25,Xanomeline Low Dose,54,80,65-80,2,WHITE,1,M,Y,Y,N,Week 8,8,WEEK 8,8,57,2013-07-04,CIBICVAL,CIBIC Score,1,5,Y,,2-84,56,1,2,84,DAYS,6001
CDISCPILOT01,716,716,01-716-1063,2013-05-09,2013-08-25,Xanomeline Low Dose,54,80,65-80,2,WHITE,1,M,Y,Y,N,Week 16,16,WEEK 16,10,112,2013-08-28,CIBICVAL,CIBIC Score,1,4,Y,,85-140,112,0,85,140,DAYS,6002
CDISCPILOT01,716,716,01-716-1063,2013-05-09,2013-08-25,Xanomeline Low Dose,54,80,65-80,2,WHITE,1,M,Y,Y,N,Week 24,24,RETRIEVAL,201,193,2013-11-17,CIBICVAL,CIBIC Score,1,6,Y,,>140,168,25,141,NA,DAYS,6003
CDISCPILOT01,716,716,01-716-1071,2013-06-08,2013-08-01,Xanomeline High Dose,81,78,65-80,2,WHITE,1,F,Y,Y,N,Week 8,8,WEEK 8,8,55,2013-08-01,CIBICVAL,CIBIC Score,1,4,Y,,2-84,56,1,2,84,DAYS,6001
CDISCPILOT01,716,716,01-716-1071,2013-06-08,2013-08-01,Xanomeline High Dose,81,78,65-80,2,WHITE,1,F,Y,Y,N,Week 16,16,WEEK 8,8,55,2013-08-01,CIBICVAL,CIBIC Score,1,4,Y,LOCF,85-140,112,57,85,140,DAYS,6001
CDISCPILOT01,716,716,01-716-1071,2013-06-08,2013-08-01,Xanomeline High Dose,81,78,65-80,2,WHITE,1,F,Y,Y,N,Week 24,24,RETRIEVAL,201,192,2013-12-16,CIBICVAL,CIBIC Score,1,4,Y,,>140,168,24,141,NA,DAYS,6002
CDISCPILOT01,716,716,01-716-1094,2012-12-19,2013-01-24,Xanomeline Low Dose,54,82,>80,3,WHITE,1,M,Y,Y,N,Week 8,8,WEEK 6,7,39,2013-01-26,CIBICVAL,CIBIC Score,1,2,Y,,2-84,56,17,2,84,DAYS,6001
CDISCPILOT01,716,716,01-716-1094,2012-12-19,2013-01-24,Xanomeline Low Dose,54,82,>80,3,WHITE,1,M,Y,Y,N,Week 16,16,WEEK 6,7,39,2013-01-26,CIBICVAL,CIBIC Score,1,2,Y,LOCF,85-140,112,73,85,140,DAYS,6001
CDISCPILOT01,716,716,01-716-1094,2012-12-19,2013-01-24,Xanomeline Low Dose,54,82,>80,3,WHITE,1,M,Y,Y,N,Week 24,24,RETRIEVAL,201,186,2013-06-22,CIBICVAL,CIBIC Score,1,4,Y,,>140,168,18,141,NA,DAYS,6002
CDISCPILOT01,716,716,01-716-1103,2014-03-20,2014-09-20,Xanomeline Low Dose,54,79,65-80,2,WHITE,1,M,Y,Y,Y,Week 8,8,WEEK 8,8,64,2014-05-22,CIBICVAL,CIBIC Score,1,3,Y,,2-84,56,8,2,84,DAYS,6001
CDISCPILOT01,716,716,01-716-1103,2014-03-20,2014-09-20,Xanomeline Low Dose,54,79,65-80,2,WHITE,1,M,Y,Y,Y,Week 16,16,WEEK 16,10,126,2014-07-23,CIBICVAL,CIBIC Score,1,3,Y,,85-140,112,14,85,140,DAYS,6002
CDISCPILOT01,716,716,01-716-1103,2014-03-20,2014-09-20,Xanomeline Low Dose,54,79,65-80,2,WHITE,1,M,Y,Y,Y,Week 24,24,WEEK 24,12,164,2014-08-30,CIBICVAL,CIBIC Score,1,3,Y,,>140,168,4,141,NA,DAYS,6003
CDISCPILOT01,716,716,01-716-1108,2013-02-12,2013-08-10,Placebo,0,86,>80,3,WHITE,1,F,Y,Y,Y,Week 8,8,WEEK 8,8,60,2013-04-12,CIBICVAL,CIBIC Score,1,4,Y,,2-84,56,4,2,84,DAYS,6001
CDISCPILOT01,716,716,01-716-1108,2013-02-12,2013-08-10,Placebo,0,86,>80,3,WHITE,1,F,Y,Y,Y,Week 16,16,WEEK 16,10,116,2013-06-07,CIBICVAL,CIBIC Score,1,4,Y,,85-140,112,4,85,140,DAYS,6002
CDISCPILOT01,716,716,01-716-1108,2013-02-12,2013-08-10,Placebo,0,86,>80,3,WHITE,1,F,Y,Y,Y,Week 24,24,WEEK 24,12,172,2013-08-02,CIBICVAL,CIBIC Score,1,4,Y,,>140,168,4,141,NA,DAYS,6003
CDISCPILOT01,716,716,01-716-1151,2013-02-01,2013-05-11,Xanomeline Low Dose,54,83,>80,3,WHITE,1,F,Y,Y,N,Week 8,8,WEEK 8,8,61,2013-04-02,CIBICVAL,CIBIC Score,1,4,Y,,2-84,56,5,2,84,DAYS,6001
CDISCPILOT01,716,716,01-716-1151,2013-02-01,2013-05-11,Xanomeline Low Dose,54,83,>80,3,WHITE,1,F,Y,Y,N,Week 16,16,WEEK 16,10,127,2013-06-07,CIBICVAL,CIBIC Score,1,3,Y,,85-140,112,15,85,140,DAYS,6002
CDISCPILOT01,716,716,01-716-1151,2013-02-01,2013-05-11,Xanomeline Low Dose,54,83,>80,3,WHITE,1,F,Y,Y,N,Week 24,24,RETRIEVAL,201,194,2013-08-13,CIBICVAL,CIBIC Score,1,5,Y,,>140,168,26,141,NA,DAYS,6003
CDISCPILOT01,716,716,01-716-1157,2013-10-02,2014-04-04,Xanomeline Low Dose,54,85,>80,3,WHITE,1,M,Y,Y,Y,Week 8,8,WEEK 8,8,56,2013-11-26,CIBICVAL,CIBIC Score,1,3,Y,,2-84,56,0,2,84,DAYS,6001
CDISCPILOT01,716,716,01-716-1157,2013-10-02,2014-04-04,Xanomeline Low Dose,54,85,>80,3,WHITE,1,M,Y,Y,Y,Week 16,16,WEEK 16,10,111,2014-01-20,CIBICVAL,CIBIC Score,1,5,Y,,85-140,112,1,85,140,DAYS,6002
CDISCPILOT01,716,716,01-716-1157,2013-10-02,2014-04-04,Xanomeline Low Dose,54,85,>80,3,WHITE,1,M,Y,Y,Y,Week 24,24,WEEK 24,12,176,2014-03-26,CIBICVAL,CIBIC Score,1,5,Y,,>140,168,8,141,NA,DAYS,6003
CDISCPILOT01,716,716,01-716-1160,2013-04-05,2013-10-11,Placebo,0,83,>80,3,WHITE,1,F,Y,Y,Y,Week 8,8,WEEK 8,8,69,2013-06-12,CIBICVAL,CIBIC Score,1,4,Y,,2-84,56,13,2,84,DAYS,6001
CDISCPILOT01,716,716,01-716-1160,2013-04-05,2013-10-11,Placebo,0,83,>80,3,WHITE,1,F,Y,Y,Y,Week 16,16,WEEK 16,10,114,2013-07-27,CIBICVAL,CIBIC Score,1,4,Y,,85-140,112,2,85,140,DAYS,6002
CDISCPILOT01,716,716,01-716-1160,2013-04-05,2013-10-11,Placebo,0,83,>80,3,WHITE,1,F,Y,Y,Y,Week 24,24,WEEK 24,12,176,2013-09-27,CIBICVAL,CIBIC Score,1,4,Y,,>140,168,8,141,NA,DAYS,6003
CDISCPILOT01,716,716,01-716-1167,2012-10-08,2013-04-12,Xanomeline Low Dose,54,68,65-80,2,WHITE,1,M,Y,Y,Y,Week 8,8,WEEK 8,8,57,2012-12-03,CIBICVAL,CIBIC Score,1,3,Y,,2-84,56,1,2,84,DAYS,6001
CDISCPILOT01,716,716,01-716-1167,2012-10-08,2013-04-12,Xanomeline Low Dose,54,68,65-80,2,WHITE,1,M,Y,Y,Y,Week 16,16,WEEK 16,10,113,2013-01-28,CIBICVAL,CIBIC Score,1,5,Y,,85-140,112,1,85,140,DAYS,6002
CDISCPILOT01,716,716,01-716-1167,2012-10-08,2013-04-12,Xanomeline Low Dose,54,68,65-80,2,WHITE,1,M,Y,Y,Y,Week 24,24,WEEK 24,12,168,2013-03-24,CIBICVAL,CIBIC Score,1,3,Y,,>140,168,0,141,NA,DAYS,6003
CDISCPILOT01,716,716,01-716-1177,2014-09-02,2015-03-05,Placebo,0,72,65-80,2,WHITE,1,M,Y,Y,Y,Week 8,8,WEEK 8,8,59,2014-10-30,CIBICVAL,CIBIC Score,1,4,Y,,2-84,56,3,2,84,DAYS,6001
CDISCPILOT01,716,716,01-716-1177,2014-09-02,2015-03-05,Placebo,0,72,65-80,2,WHITE,1,M,Y,Y,Y,Week 16,16,WEEK 16,10,122,2015-01-01,CIBICVAL,CIBIC Score,1,5,Y,,85-140,112,10,85,140,DAYS,6002
CDISCPILOT01,716,716,01-716-1177,2014-09-02,2015-03-05,Placebo,0,72,65-80,2,WHITE,1,M,Y,Y,Y,Week 24,24,WEEK 24,12,169,2015-02-17,CIBICVAL,CIBIC Score,1,4,Y,,>140,168,1,141,NA,DAYS,6003
CDISCPILOT01,716,716,01-716-1189,2012-10-09,2013-02-27,Xanomeline High Dose,81,81,>80,3,WHITE,1,M,Y,Y,N,Week 8,8,WEEK 8,8,61,2012-12-08,CIBICVAL,CIBIC Score,1,6,Y,,2-84,56,5,2,84,DAYS,6001
CDISCPILOT01,716,716,01-716-1189,2012-10-09,2013-02-27,Xanomeline High Dose,81,81,>80,3,WHITE,1,M,Y,Y,N,Week 16,16,WEEK 16,10,118,2013-02-03,CIBICVAL,CIBIC Score,1,5,Y,,85-140,112,6,85,140,DAYS,6002
CDISCPILOT01,716,716,01-716-1189,2012-10-09,2013-02-27,Xanomeline High Dose,81,81,>80,3,WHITE,1,M,Y,Y,N,Week 24,24,WEEK 20,11,146,2013-03-03,CIBICVAL,CIBIC Score,1,5,,,>140,168,22,141,NA,DAYS,6003
CDISCPILOT01,716,716,01-716-1189,2012-10-09,2013-02-27,Xanomeline High Dose,81,81,>80,3,WHITE,1,M,Y,Y,N,Week 24,24,RETRIEVAL,201,182,2013-04-08,CIBICVAL,CIBIC Score,1,6,Y,,>140,168,14,141,NA,DAYS,6004
CDISCPILOT01,716,716,01-716-1229,2013-02-20,2013-03-31,Xanomeline High Dose,81,73,65-80,2,WHITE,1,F,Y,Y,N,Week 8,8,WEEK 6,7,42,2013-04-02,CIBICVAL,CIBIC Score,1,4,Y,,2-84,56,14,2,84,DAYS,6001
CDISCPILOT01,716,716,01-716-1229,2013-02-20,2013-03-31,Xanomeline High Dose,81,73,65-80,2,WHITE,1,F,Y,Y,N,Week 16,16,WEEK 6,7,42,2013-04-02,CIBICVAL,CIBIC Score,1,4,Y,LOCF,85-140,112,70,85,140,DAYS,6001
CDISCPILOT01,716,716,01-716-1229,2013-02-20,2013-03-31,Xanomeline High Dose,81,73,65-80,2,WHITE,1,F,Y,Y,N,Week 24,24,WEEK 6,7,42,2013-04-02,CIBICVAL,CIBIC Score,1,4,Y,LOCF,>140,168,126,141,NA,DAYS,6001
CDISCPILOT01,716,716,01-716-1298,2013-04-08,2013-06-28,Xanomeline Low Dose,54,76,65-80,2,WHITE,1,F,Y,Y,N,Week 8,8,WEEK 8,8,61,2013-06-07,CIBICVAL,CIBIC Score,1,4,Y,,2-84,56,5,2,84,DAYS,6001
CDISCPILOT01,716,716,01-716-1298,2013-04-08,2013-06-28,Xanomeline Low Dose,54,76,65-80,2,WHITE,1,F,Y,Y,N,Week 16,16,WEEK 12,9,90,2013-07-06,CIBICVAL,CIBIC Score,1,4,Y,,85-140,112,22,85,140,DAYS,6002
CDISCPILOT01,716,716,01-716-1298,2013-04-08,2013-06-28,Xanomeline Low Dose,54,76,65-80,2,WHITE,1,F,Y,Y,N,Week 24,24,RETRIEVAL,201,183,2013-10-07,CIBICVAL,CIBIC Score,1,5,Y,,>140,168,15,141,NA,DAYS,6003
CDISCPILOT01,716,716,01-716-1308,2013-08-28,2013-10-07,Placebo,0,76,65-80,2,WHITE,1,F,Y,Y,N,Week 8,8,WEEK 6,7,41,2013-10-07,CIBICVAL,CIBIC Score,1,6,Y,,2-84,56,15,2,84,DAYS,6001
CDISCPILOT01,716,716,01-716-1308,2013-08-28,2013-10-07,Placebo,0,76,65-80,2,WHITE,1,F,Y,Y,N,Week 16,16,WEEK 6,7,41,2013-10-07,CIBICVAL,CIBIC Score,1,6,Y,LOCF,85-140,112,71,85,140,DAYS,6001
CDISCPILOT01,716,716,01-716-1308,2013-08-28,2013-10-07,Placebo,0,76,65-80,2,WHITE,1,F,Y,Y,N,Week 24,24,WEEK 6,7,41,2013-10-07,CIBICVAL,CIBIC Score,1,6,Y,LOCF,>140,168,127,141,NA,DAYS,6001
CDISCPILOT01,716,716,01-716-1311,2014-05-14,2014-09-21,Xanomeline Low Dose,54,78,65-80,2,WHITE,1,M,Y,Y,N,Week 8,8,WEEK 8,8,56,2014-07-08,CIBICVAL,CIBIC Score,1,4,Y,,2-84,56,0,2,84,DAYS,6001
CDISCPILOT01,716,716,01-716-1311,2014-05-14,2014-09-21,Xanomeline Low Dose,54,78,65-80,2,WHITE,1,M,Y,Y,N,Week 16,16,WEEK 16,10,120,2014-09-10,CIBICVAL,CIBIC Score,1,6,Y,,85-140,112,8,85,140,DAYS,6002
CDISCPILOT01,716,716,01-716-1311,2014-05-14,2014-09-21,Xanomeline Low Dose,54,78,65-80,2,WHITE,1,M,Y,Y,N,Week 24,24,RETRIEVAL,201,186,2014-11-15,CIBICVAL,CIBIC Score,1,5,Y,,>140,168,18,141,NA,DAYS,6003
CDISCPILOT01,716,716,01-716-1364,2013-07-04,2014-01-09,Xanomeline High Dose,81,84,>80,3,WHITE,1,F,Y,Y,Y,Week 8,8,WEEK 8,8,61,2013-09-02,CIBICVAL,CIBIC Score,1,4,Y,,2-84,56,5,2,84,DAYS,6001
CDISCPILOT01,716,716,01-716-1364,2013-07-04,2014-01-09,Xanomeline High Dose,81,84,>80,3,WHITE,1,F,Y,Y,Y,Week 16,16,WEEK 16,10,127,2013-11-07,CIBICVAL,CIBIC Score,1,5,Y,,85-140,112,15,85,140,DAYS,6002
CDISCPILOT01,716,716,01-716-1364,2013-07-04,2014-01-09,Xanomeline High Dose,81,84,>80,3,WHITE,1,F,Y,Y,Y,Week 24,24,WEEK 24,12,173,2013-12-23,CIBICVAL,CIBIC Score,1,5,Y,,>140,168,5,141,NA,DAYS,6003
CDISCPILOT01,716,716,01-716-1373,2012-12-14,2013-02-27,Xanomeline High Dose,81,74,65-80,2,WHITE,1,M,Y,Y,N,Week 8,8,WEEK 8,8,58,2013-02-09,CIBICVAL,CIBIC Score,1,3,Y,,2-84,56,2,2,84,DAYS,6001
CDISCPILOT01,716,716,01-716-1373,2012-12-14,2013-02-27,Xanomeline High Dose,81,74,65-80,2,WHITE,1,M,Y,Y,N,Week 8,8,WEEK 12,9,77,2013-02-28,CIBICVAL,CIBIC Score,1,3,,,2-84,56,21,2,84,DAYS,6002
CDISCPILOT01,716,716,01-716-1373,2012-12-14,2013-02-27,Xanomeline High Dose,81,74,65-80,2,WHITE,1,M,Y,Y,N,Week 16,16,WEEK 12,9,77,2013-02-28,CIBICVAL,CIBIC Score,1,3,Y,LOCF,85-140,112,35,85,140,DAYS,6002
CDISCPILOT01,716,716,01-716-1373,2012-12-14,2013-02-27,Xanomeline High Dose,81,74,65-80,2,WHITE,1,M,Y,Y,N,Week 24,24,WEEK 12,9,77,2013-02-28,CIBICVAL,CIBIC Score,1,3,Y,LOCF,>140,168,91,141,NA,DAYS,6002
CDISCPILOT01,716,716,01-716-1418,2013-05-05,2013-11-20,Xanomeline High Dose,81,80,65-80,2,WHITE,1,F,Y,Y,Y,Week 8,8,WEEK 8,8,68,2013-07-11,CIBICVAL,CIBIC Score,1,4,Y,,2-84,56,12,2,84,DAYS,6001
CDISCPILOT01,716,716,01-716-1418,2013-05-05,2013-11-20,Xanomeline High Dose,81,80,65-80,2,WHITE,1,F,Y,Y,Y,Week 16,16,WEEK 16,10,124,2013-09-05,CIBICVAL,CIBIC Score,1,3,Y,,85-140,112,12,85,140,DAYS,6002
CDISCPILOT01,716,716,01-716-1418,2013-05-05,2013-11-20,Xanomeline High Dose,81,80,65-80,2,WHITE,1,F,Y,Y,Y,Week 24,24,WEEK 24,12,186,2013-11-06,CIBICVAL,CIBIC Score,1,5,Y,,>140,168,18,141,NA,DAYS,6003
CDISCPILOT01,716,716,01-716-1441,2014-01-22,2014-07-22,Placebo,0,85,>80,3,WHITE,1,M,Y,Y,Y,Week 8,8,WEEK 8,8,57,2014-03-19,CIBICVAL,CIBIC Score,1,4,Y,,2-84,56,1,2,84,DAYS,6001
CDISCPILOT01,716,716,01-716-1441,2014-01-22,2014-07-22,Placebo,0,85,>80,3,WHITE,1,M,Y,Y,Y,Week 16,16,WEEK 16,10,118,2014-05-19,CIBICVAL,CIBIC Score,1,3,Y,,85-140,112,6,85,140,DAYS,6002
CDISCPILOT01,716,716,01-716-1441,2014-01-22,2014-07-22,Placebo,0,85,>80,3,WHITE,1,M,Y,Y,Y,Week 24,24,WEEK 24,12,168,2014-07-08,CIBICVAL,CIBIC Score,1,5,Y,,>140,168,0,141,NA,DAYS,6003
CDISCPILOT01,716,716,01-716-1447,2013-12-16,2014-06-17,Xanomeline High Dose,81,72,65-80,2,WHITE,1,F,Y,Y,Y,Week 8,8,WEEK 8,8,57,2014-02-10,CIBICVAL,CIBIC Score,1,2,Y,,2-84,56,1,2,84,DAYS,6001
CDISCPILOT01,716,716,01-716-1447,2013-12-16,2014-06-17,Xanomeline High Dose,81,72,65-80,2,WHITE,1,F,Y,Y,Y,Week 16,16,WEEK 16,10,118,2014-04-12,CIBICVAL,CIBIC Score,1,2,Y,,85-140,112,6,85,140,DAYS,6002
CDISCPILOT01,716,716,01-716-1447,2013-12-16,2014-06-17,Xanomeline High Dose,81,72,65-80,2,WHITE,1,F,Y,Y,Y,Week 24,24,WEEK 24,12,174,2014-06-07,CIBICVAL,CIBIC Score,1,3,Y,,>140,168,6,141,NA,DAYS,6003
CDISCPILOT01,717,900,01-717-1004,2014-01-14,2014-07-16,Xanomeline Low Dose,54,80,65-80,2,WHITE,1,F,Y,Y,Y,Week 8,8,WEEK 8,8,57,2014-03-11,CIBICVAL,CIBIC Score,1,3,Y,,2-84,56,1,2,84,DAYS,6001
CDISCPILOT01,717,900,01-717-1004,2014-01-14,2014-07-16,Xanomeline Low Dose,54,80,65-80,2,WHITE,1,F,Y,Y,Y,Week 16,16,WEEK 16,10,113,2014-05-06,CIBICVAL,CIBIC Score,1,4,Y,,85-140,112,1,85,140,DAYS,6002
CDISCPILOT01,717,900,01-717-1004,2014-01-14,2014-07-16,Xanomeline Low Dose,54,80,65-80,2,WHITE,1,F,Y,Y,Y,Week 24,24,WEEK 24,12,169,2014-07-01,CIBICVAL,CIBIC Score,1,4,Y,,>140,168,1,141,NA,DAYS,6003
CDISCPILOT01,717,900,01-717-1109,2014-01-27,2014-07-28,Xanomeline High Dose,81,84,>80,3,WHITE,1,M,Y,Y,Y,Week 8,8,WEEK 8,8,57,2014-03-24,CIBICVAL,CIBIC Score,1,5,Y,,2-84,56,1,2,84,DAYS,6001
CDISCPILOT01,717,900,01-717-1109,2014-01-27,2014-07-28,Xanomeline High Dose,81,84,>80,3,WHITE,1,M,Y,Y,Y,Week 16,16,WEEK 16,10,113,2014-05-19,CIBICVAL,CIBIC Score,1,5,Y,,85-140,112,1,85,140,DAYS,6002
CDISCPILOT01,717,900,01-717-1109,2014-01-27,2014-07-28,Xanomeline High Dose,81,84,>80,3,WHITE,1,M,Y,Y,Y,Week 24,24,WEEK 24,12,173,2014-07-18,CIBICVAL,CIBIC Score,1,6,Y,,>140,168,5,141,NA,DAYS,6003
CDISCPILOT01,717,900,01-717-1174,2013-01-22,2013-07-24,Xanomeline High Dose,81,73,65-80,2,WHITE,1,M,Y,Y,Y,Week 8,8,WEEK 8,8,57,2013-03-19,CIBICVAL,CIBIC Score,1,4,Y,,2-84,56,1,2,84,DAYS,6001
CDISCPILOT01,717,900,01-717-1174,2013-01-22,2013-07-24,Xanomeline High Dose,81,73,65-80,2,WHITE,1,M,Y,Y,Y,Week 16,16,WEEK 16,10,117,2013-05-18,CIBICVAL,CIBIC Score,1,5,Y,,85-140,112,5,85,140,DAYS,6002
CDISCPILOT01,717,900,01-717-1174,2013-01-22,2013-07-24,Xanomeline High Dose,81,73,65-80,2,WHITE,1,M,Y,Y,Y,Week 24,24,WEEK 24,12,167,2013-07-07,CIBICVAL,CIBIC Score,1,5,Y,,>140,168,1,141,NA,DAYS,6003
CDISCPILOT01,717,900,01-717-1201,2013-12-19,2014-02-21,Placebo,0,85,>80,3,WHITE,1,F,Y,Y,N,Week 8,8,WEEK 8,8,65,2014-02-21,CIBICVAL,CIBIC Score,1,5,Y,,2-84,56,9,2,84,DAYS,6001
CDISCPILOT01,717,900,01-717-1201,2013-12-19,2014-02-21,Placebo,0,85,>80,3,WHITE,1,F,Y,Y,N,Week 16,16,WEEK 8,8,65,2014-02-21,CIBICVAL,CIBIC Score,1,5,Y,LOCF,85-140,112,47,85,140,DAYS,6001
CDISCPILOT01,717,900,01-717-1201,2013-12-19,2014-02-21,Placebo,0,85,>80,3,WHITE,1,F,Y,Y,N,Week 24,24,WEEK 8,8,65,2014-02-21,CIBICVAL,CIBIC Score,1,5,Y,LOCF,>140,168,103,141,NA,DAYS,6001
CDISCPILOT01,717,900,01-717-1344,2014-01-11,2014-03-14,Placebo,0,64,<65,1,WHITE,1,F,Y,Y,N,Week 8,8,WEEK 8,8,63,2014-03-14,CIBICVAL,CIBIC Score,1,4,Y,,2-84,56,7,2,84,DAYS,6001
CDISCPILOT01,717,900,01-717-1344,2014-01-11,2014-03-14,Placebo,0,64,<65,1,WHITE,1,F,Y,Y,N,Week 16,16,WEEK 8,8,63,2014-03-14,CIBICVAL,CIBIC Score,1,4,Y,LOCF,85-140,112,49,85,140,DAYS,6001
CDISCPILOT01,717,900,01-717-1344,2014-01-11,2014-03-14,Placebo,0,64,<65,1,WHITE,1,F,Y,Y,N,Week 24,24,WEEK 8,8,63,2014-03-14,CIBICVAL,CIBIC Score,1,4,Y,LOCF,>140,168,105,141,NA,DAYS,6001
CDISCPILOT01,717,900,01-717-1357,2013-05-01,2013-10-14,Xanomeline High Dose,81,77,65-80,2,WHITE,1,M,Y,Y,Y,Week 8,8,WEEK 8,8,50,2013-06-19,CIBICVAL,CIBIC Score,1,5,Y,,2-84,56,6,2,84,DAYS,6001
CDISCPILOT01,717,900,01-717-1357,2013-05-01,2013-10-14,Xanomeline High Dose,81,77,65-80,2,WHITE,1,M,Y,Y,Y,Week 16,16,WEEK 16,10,113,2013-08-21,CIBICVAL,CIBIC Score,1,4,Y,,85-140,112,1,85,140,DAYS,6002
CDISCPILOT01,717,900,01-717-1357,2013-05-01,2013-10-14,Xanomeline High Dose,81,77,65-80,2,WHITE,1,M,Y,Y,Y,Week 24,24,WEEK 24,12,173,2013-10-20,CIBICVAL,CIBIC Score,1,5,Y,,>140,168,5,141,NA,DAYS,6003
CDISCPILOT01,717,900,01-717-1446,2013-09-01,2014-03-03,Xanomeline Low Dose,54,75,65-80,2,WHITE,1,F,Y,Y,Y,Week 8,8,WEEK 8,8,60,2013-10-30,CIBICVAL,CIBIC Score,1,4,Y,,2-84,56,4,2,84,DAYS,6001
CDISCPILOT01,717,900,01-717-1446,2013-09-01,2014-03-03,Xanomeline Low Dose,54,75,65-80,2,WHITE,1,F,Y,Y,Y,Week 16,16,WEEK 16,10,120,2013-12-29,CIBICVAL,CIBIC Score,1,4,Y,,85-140,112,8,85,140,DAYS,6002
CDISCPILOT01,717,900,01-717-1446,2013-09-01,2014-03-03,Xanomeline Low Dose,54,75,65-80,2,WHITE,1,F,Y,Y,Y,Week 24,24,WEEK 24,12,169,2014-02-16,CIBICVAL,CIBIC Score,1,4,Y,,>140,168,1,141,NA,DAYS,6003
CDISCPILOT01,718,718,01-718-1066,2013-07-07,2013-07-16,Xanomeline Low Dose,54,79,65-80,2,WHITE,1,F,Y,Y,N,Week 8,8,WEEK 2,4,24,2013-07-30,CIBICVAL,CIBIC Score,1,5,Y,,2-84,56,32,2,84,DAYS,6001
CDISCPILOT01,718,718,01-718-1066,2013-07-07,2013-07-16,Xanomeline Low Dose,54,79,65-80,2,WHITE,1,F,Y,Y,N,Week 16,16,WEEK 2,4,24,2013-07-30,CIBICVAL,CIBIC Score,1,5,Y,LOCF,85-140,112,88,85,140,DAYS,6001
CDISCPILOT01,718,718,01-718-1066,2013-07-07,2013-07-16,Xanomeline Low Dose,54,79,65-80,2,WHITE,1,F,Y,Y,N,Week 24,24,RETRIEVAL,201,191,2014-01-13,CIBICVAL,CIBIC Score,1,5,Y,,>140,168,23,141,NA,DAYS,6002
CDISCPILOT01,718,718,01-718-1079,2012-09-19,2012-10-31,Xanomeline Low Dose,54,67,65-80,2,WHITE,1,F,Y,Y,N,Week 8,8,WEEK 6,7,49,2012-11-06,CIBICVAL,CIBIC Score,1,4,Y,,2-84,56,7,2,84,DAYS,6001
CDISCPILOT01,718,718,01-718-1079,2012-09-19,2012-10-31,Xanomeline Low Dose,54,67,65-80,2,WHITE,1,F,Y,Y,N,Week 16,16,WEEK 6,7,49,2012-11-06,CIBICVAL,CIBIC Score,1,4,Y,LOCF,85-140,112,63,85,140,DAYS,6001
CDISCPILOT01,718,718,01-718-1079,2012-09-19,2012-10-31,Xanomeline Low Dose,54,67,65-80,2,WHITE,1,F,Y,Y,N,Week 24,24,RETRIEVAL,201,168,2013-03-05,CIBICVAL,CIBIC Score,1,3,Y,,>140,168,0,141,NA,DAYS,6002
CDISCPILOT01,718,718,01-718-1101,2013-02-17,2013-07-31,Xanomeline High Dose,81,82,>80,3,BLACK OR AFRICAN AMERICAN,2,M,Y,Y,Y,Week 8,8,WEEK 8,8,56,2013-04-13,CIBICVAL,CIBIC Score,1,4,Y,,2-84,56,0,2,84,DAYS,6001
CDISCPILOT01,718,718,01-718-1101,2013-02-17,2013-07-31,Xanomeline High Dose,81,82,>80,3,BLACK OR AFRICAN AMERICAN,2,M,Y,Y,Y,Week 16,16,WEEK 16,10,118,2013-06-14,CIBICVAL,CIBIC Score,1,5,Y,,85-140,112,6,85,140,DAYS,6002
CDISCPILOT01,718,718,01-718-1101,2013-02-17,2013-07-31,Xanomeline High Dose,81,82,>80,3,BLACK OR AFRICAN AMERICAN,2,M,Y,Y,Y,Week 24,24,WEEK 24,12,167,2013-08-02,CIBICVAL,CIBIC Score,1,4,Y,,>140,168,1,141,NA,DAYS,6003
CDISCPILOT01,718,718,01-718-1139,2013-05-19,2013-11-17,Placebo,0,77,65-80,2,WHITE,1,M,Y,Y,Y,Week 8,8,WEEK 8,8,57,2013-07-14,CIBICVAL,CIBIC Score,1,4,Y,,2-84,56,1,2,84,DAYS,6001
CDISCPILOT01,718,718,01-718-1139,2013-05-19,2013-11-17,Placebo,0,77,65-80,2,WHITE,1,M,Y,Y,Y,Week 16,16,WEEK 16,10,113,2013-09-08,CIBICVAL,CIBIC Score,1,4,Y,,85-140,112,1,85,140,DAYS,6002
CDISCPILOT01,718,718,01-718-1139,2013-05-19,2013-11-17,Placebo,0,77,65-80,2,WHITE,1,M,Y,Y,Y,Week 24,24,WEEK 24,12,169,2013-11-03,CIBICVAL,CIBIC Score,1,4,Y,,>140,168,1,141,NA,DAYS,6003
CDISCPILOT01,718,718,01-718-1150,2013-01-19,2013-07-29,Placebo,0,73,65-80,2,WHITE,1,F,Y,Y,Y,Week 8,8,WEEK 8,8,58,2013-03-17,CIBICVAL,CIBIC Score,1,4,Y,,2-84,56,2,2,84,DAYS,6001
CDISCPILOT01,718,718,01-718-1150,2013-01-19,2013-07-29,Placebo,0,73,65-80,2,WHITE,1,F,Y,Y,Y,Week 16,16,WEEK 16,10,112,2013-05-10,CIBICVAL,CIBIC Score,1,4,Y,,85-140,112,0,85,140,DAYS,6002
CDISCPILOT01,718,718,01-718-1150,2013-01-19,2013-07-29,Placebo,0,73,65-80,2,WHITE,1,F,Y,Y,Y,Week 24,24,WEEK 24,12,170,2013-07-07,CIBICVAL,CIBIC Score,1,4,Y,,>140,168,2,141,NA,DAYS,6003
CDISCPILOT01,718,718,01-718-1170,2013-09-16,2013-10-12,Xanomeline Low Dose,54,80,65-80,2,WHITE,1,F,Y,Y,N,Week 8,8,WEEK 4,5,49,2013-11-03,CIBICVAL,CIBIC Score,1,5,Y,,2-84,56,7,2,84,DAYS,6001
CDISCPILOT01,718,718,01-718-1170,2013-09-16,2013-10-12,Xanomeline Low Dose,54,80,65-80,2,WHITE,1,F,Y,Y,N,Week 16,16,WEEK 4,5,49,2013-11-03,CIBICVAL,CIBIC Score,1,5,Y,LOCF,85-140,112,63,85,140,DAYS,6001
CDISCPILOT01,718,718,01-718-1170,2013-09-16,2013-10-12,Xanomeline Low Dose,54,80,65-80,2,WHITE,1,F,Y,Y,N,Week 24,24,RETRIEVAL,201,181,2014-03-15,CIBICVAL,CIBIC Score,1,4,Y,,>140,168,13,141,NA,DAYS,6002
CDISCPILOT01,718,718,01-718-1172,2013-09-21,2013-11-29,Placebo,0,74,65-80,2,WHITE,1,M,Y,Y,N,Week 8,8,WEEK 8,8,57,2013-11-16,CIBICVAL,CIBIC Score,1,4,Y,,2-84,56,1,2,84,DAYS,6001
CDISCPILOT01,718,718,01-718-1172,2013-09-21,2013-11-29,Placebo,0,74,65-80,2,WHITE,1,M,Y,Y,N,Week 8,8,WEEK 12,9,70,2013-11-29,CIBICVAL,CIBIC Score,1,4,,,2-84,56,14,2,84,DAYS,6002
CDISCPILOT01,718,718,01-718-1172,2013-09-21,2013-11-29,Placebo,0,74,65-80,2,WHITE,1,M,Y,Y,N,Week 16,16,WEEK 12,9,70,2013-11-29,CIBICVAL,CIBIC Score,1,4,Y,LOCF,85-140,112,42,85,140,DAYS,6002
CDISCPILOT01,718,718,01-718-1172,2013-09-21,2013-11-29,Placebo,0,74,65-80,2,WHITE,1,M,Y,Y,N,Week 24,24,RETRIEVAL,201,182,2014-03-21,CIBICVAL,CIBIC Score,1,4,Y,,>140,168,14,141,NA,DAYS,6003
CDISCPILOT01,718,718,01-718-1250,2013-09-21,2014-01-31,Xanomeline Low Dose,54,82,>80,3,WHITE,1,F,Y,Y,N,Week 8,8,WEEK 8,8,57,2013-11-16,CIBICVAL,CIBIC Score,1,4,Y,,2-84,56,1,2,84,DAYS,6001
CDISCPILOT01,718,718,01-718-1250,2013-09-21,2014-01-31,Xanomeline Low Dose,54,82,>80,3,WHITE,1,F,Y,Y,N,Week 16,16,WEEK 16,10,113,2014-01-11,CIBICVAL,CIBIC Score,1,4,Y,,85-140,112,1,85,140,DAYS,6002
CDISCPILOT01,718,718,01-718-1250,2013-09-21,2014-01-31,Xanomeline Low Dose,54,82,>80,3,WHITE,1,F,Y,Y,N,Week 24,24,WEEK 20,11,141,2014-02-08,CIBICVAL,CIBIC Score,1,4,,,>140,168,27,141,NA,DAYS,6003
CDISCPILOT01,718,718,01-718-1250,2013-09-21,2014-01-31,Xanomeline Low Dose,54,82,>80,3,WHITE,1,F,Y,Y,N,Week 24,24,RETRIEVAL,201,169,2014-03-08,CIBICVAL,CIBIC Score,1,4,Y,,>140,168,1,141,NA,DAYS,6004
CDISCPILOT01,718,718,01-718-1254,2013-07-10,2014-01-09,Xanomeline Low Dose,54,78,65-80,2,WHITE,1,M,Y,Y,Y,Week 8,8,WEEK 8,8,58,2013-09-05,CIBICVAL,CIBIC Score,1,4,Y,,2-84,56,2,2,84,DAYS,6001
CDISCPILOT01,718,718,01-718-1254,2013-07-10,2014-01-09,Xanomeline Low Dose,54,78,65-80,2,WHITE,1,M,Y,Y,Y,Week 16,16,WEEK 16,10,114,2013-10-31,CIBICVAL,CIBIC Score,1,4,Y,,85-140,112,2,85,140,DAYS,6002
CDISCPILOT01,718,718,01-718-1254,2013-07-10,2014-01-09,Xanomeline Low Dose,54,78,65-80,2,WHITE,1,M,Y,Y,Y,Week 24,24,WEEK 24,12,170,2013-12-26,CIBICVAL,CIBIC Score,1,4,Y,,>140,168,2,141,NA,DAYS,6003
CDISCPILOT01,718,718,01-718-1328,2013-02-01,2013-04-18,Xanomeline High Dose,81,86,>80,3,WHITE,1,M,Y,Y,N,Week 8,8,WEEK 8,8,63,2013-04-04,CIBICVAL,CIBIC Score,1,5,Y,,2-84,56,7,2,84,DAYS,6001
CDISCPILOT01,718,718,01-718-1328,2013-02-01,2013-04-18,Xanomeline High Dose,81,86,>80,3,WHITE,1,M,Y,Y,N,Week 16,16,WEEK 12,9,90,2013-05-01,CIBICVAL,CIBIC Score,1,5,Y,,85-140,112,22,85,140,DAYS,6002
CDISCPILOT01,718,718,01-718-1328,2013-02-01,2013-04-18,Xanomeline High Dose,81,86,>80,3,WHITE,1,M,Y,Y,N,Week 24,24,RETRIEVAL,201,174,2013-07-24,CIBICVAL,CIBIC Score,1,5,Y,,>140,168,6,141,NA,DAYS,6003
CDISCPILOT01,718,718,01-718-1355,2013-02-28,2013-08-29,Placebo,0,79,65-80,2,WHITE,1,M,Y,Y,Y,Week 8,8,WEEK 8,8,57,2013-04-25,CIBICVAL,CIBIC Score,1,5,Y,,2-84,56,1,2,84,DAYS,6001
CDISCPILOT01,718,718,01-718-1355,2013-02-28,2013-08-29,Placebo,0,79,65-80,2,WHITE,1,M,Y,Y,Y,Week 16,16,WEEK 16,10,113,2013-06-20,CIBICVAL,CIBIC Score,1,4,Y,,85-140,112,1,85,140,DAYS,6002
CDISCPILOT01,718,718,01-718-1355,2013-02-28,2013-08-29,Placebo,0,79,65-80,2,WHITE,1,M,Y,Y,Y,Week 24,24,WEEK 24,12,169,2013-08-15,CIBICVAL,CIBIC Score,1,4,Y,,>140,168,1,141,NA,DAYS,6003
CDISCPILOT01,718,718,01-718-1371,2013-04-26,2013-08-01,Xanomeline High Dose,81,69,65-80,2,WHITE,1,F,Y,Y,N,Week 16,16,WEEK 12,9,105,2013-08-08,CIBICVAL,CIBIC Score,1,4,Y,,85-140,112,7,85,140,DAYS,6001
CDISCPILOT01,718,718,01-718-1371,2013-04-26,2013-08-01,Xanomeline High Dose,81,69,65-80,2,WHITE,1,F,Y,Y,N,Week 24,24,WEEK 12,9,105,2013-08-08,CIBICVAL,CIBIC Score,1,4,Y,LOCF,>140,168,63,141,NA,DAYS,6001
CDISCPILOT01,718,718,01-718-1427,2012-12-17,2013-02-11,Xanomeline High Dose,81,74,65-80,2,BLACK OR AFRICAN AMERICAN,2,F,Y,Y,N,Week 8,8,WEEK 8,8,64,2013-02-18,CIBICVAL,CIBIC Score,1,4,Y,,2-84,56,8,2,84,DAYS,6001
CDISCPILOT01,718,718,01-718-1427,2012-12-17,2013-02-11,Xanomeline High Dose,81,74,65-80,2,BLACK OR AFRICAN AMERICAN,2,F,Y,Y,N,Week 16,16,WEEK 8,8,64,2013-02-18,CIBICVAL,CIBIC Score,1,4,Y,LOCF,85-140,112,48,85,140,DAYS,6001
CDISCPILOT01,718,718,01-718-1427,2012-12-17,2013-02-11,Xanomeline High Dose,81,74,65-80,2,BLACK OR AFRICAN AMERICAN,2,F,Y,Y,N,Week 24,24,RETRIEVAL,201,169,2013-06-03,CIBICVAL,CIBIC Score,1,4,Y,,>140,168,1,141,NA,DAYS,6002
