studyid,subjid,usubjid,trtp,trtpn,trta,trtan,trtsdt,trtedt,age,agegr1,agegr1n,race,racen,sex,comp24fl,dsraefl,saffl,avisit,avisitn,ady,adt,visit,visitnum,paramtyp,param,paramcd,paramn,parcat1,aval,base,a1lo,a1hi,r2a1lo,r2a1hi,br2a1lo,br2a1hi,ablfl,shift1,shift1n,crit1,crit1fl,crit1fn
CDISCPILOT01,1015,01-701-1015,Placebo,0,Placebo,0,2014-01-02,2014-07-02,63,<65,1,WHITE,1,F,Y,,Y,Baseline,0,-7,2013-12-26,SCREENING 1,1,,Alanine Aminotransferase (U/L),ALT,1,CHEM,27,27,6,34,4.5,0.794117647058823,4.5,0.794117647058823,Y,,NA,R2A1HI > 1.5,N,0
CDISCPILOT01,1015,01-701-1015,Placebo,0,Placebo,0,2014-01-02,2014-07-02,63,<65,1,WHITE,1,F,Y,,Y,Baseline,0,-7,2013-12-26,SCREENING 1,1,,Aspartate Aminotransferase (U/L),AST,2,CHEM,40,40,9,34,4.44444444444444,1.17647058823529,4.44444444444444,1.17647058823529,Y,,NA,R2A1HI > 1.5,N,0
CDISCPILOT01,1015,01-701-1015,Placebo,0,Placebo,0,2014-01-02,2014-07-02,63,<65,1,WHITE,1,F,Y,,Y,Baseline,0,-7,2013-12-26,SCREENING 1,1,,Bilirubin (umol/L),BILI,3,CHEM,10.26,10.26,3,21,3.42,0.488571428571429,3.42,0.488571428571429,Y,,NA,R2A1HI > 1.5,N,0
CDISCPILOT01,1015,01-701-1015,Placebo,0,Placebo,0,2014-01-02,2014-07-02,63,<65,1,WHITE,1,F,Y,,Y,Baseline,0,NA,NA,,NA,DERIVED,Bilirubin 1.5 x ULN,BILIHY,4,HYLAW,0,0,NA,NA,NA,NA,NA,NA,Y,Normal to Normal,1,,,NA
CDISCPILOT01,1015,01-701-1015,Placebo,0,Placebo,0,2014-01-02,2014-07-02,63,<65,1,WHITE,1,F,Y,,Y,Baseline,0,NA,NA,,NA,DERIVED,Transaminase 1.5 x ULN,TRANSHY,5,HYLAW,0,0,NA,NA,NA,NA,NA,NA,Y,Normal to Normal,1,,,NA
CDISCPILOT01,1015,01-701-1015,Placebo,0,Placebo,0,2014-01-02,2014-07-02,63,<65,1,WHITE,1,F,Y,,Y,Baseline,0,NA,NA,,NA,DERIVED,Total Bili 1.5 x ULN and Transaminase 1.5 x ULN,HYLAW,6,HYLAW,0,0,NA,NA,NA,NA,NA,NA,Y,Normal to Normal,1,,,NA
CDISCPILOT01,1015,01-701-1015,Placebo,0,Placebo,0,2014-01-02,2014-07-02,63,<65,1,WHITE,1,F,Y,,Y,Week 2,2,15,2014-01-16,WEEK 2,4,,Alanine Aminotransferase (U/L),ALT,1,CHEM,41,27,6,34,6.83333333333333,1.20588235294118,4.5,0.794117647058823,,,NA,R2A1HI > 1.5,N,0
CDISCPILOT01,1015,01-701-1015,Placebo,0,Placebo,0,2014-01-02,2014-07-02,63,<65,1,WHITE,1,F,Y,,Y,Week 2,2,15,2014-01-16,WEEK 2,4,,Aspartate Aminotransferase (U/L),AST,2,CHEM,33,40,9,34,3.66666666666667,0.970588235294118,4.44444444444444,1.17647058823529,,,NA,R2A1HI > 1.5,N,0
CDISCPILOT01,1015,01-701-1015,Placebo,0,Placebo,0,2014-01-02,2014-07-02,63,<65,1,WHITE,1,F,Y,,Y,Week 2,2,15,2014-01-16,WEEK 2,4,,Bilirubin (umol/L),BILI,3,CHEM,8.55,10.26,3,21,2.85,0.407142857142857,3.42,0.488571428571429,,,NA,R2A1HI > 1.5,N,0
CDISCPILOT01,1015,01-701-1015,Placebo,0,Placebo,0,2014-01-02,2014-07-02,63,<65,1,WHITE,1,F,Y,,Y,Week 2,2,NA,NA,,NA,DERIVED,Bilirubin 1.5 x ULN,BILIHY,4,HYLAW,0,0,NA,NA,NA,NA,NA,NA,,Normal to Normal,1,,,NA
CDISCPILOT01,1015,01-701-1015,Placebo,0,Placebo,0,2014-01-02,2014-07-02,63,<65,1,WHITE,1,F,Y,,Y,Week 2,2,NA,NA,,NA,DERIVED,Transaminase 1.5 x ULN,TRANSHY,5,HYLAW,0,0,NA,NA,NA,NA,NA,NA,,Normal to Normal,1,,,NA
CDISCPILOT01,1015,01-701-1015,Placebo,0,Placebo,0,2014-01-02,2014-07-02,63,<65,1,WHITE,1,F,Y,,Y,Week 2,2,NA,NA,,NA,DERIVED,Total Bili 1.5 x ULN and Transaminase 1.5 x ULN,HYLAW,6,HYLAW,0,0,NA,NA,NA,NA,NA,NA,,Normal to Normal,1,,,NA
CDISCPILOT01,1015,01-701-1015,Placebo,0,Placebo,0,2014-01-02,2014-07-02,63,<65,1,WHITE,1,F,Y,,Y,Week 4,4,29,2014-01-30,WEEK 4,5,,Alanine Aminotransferase (U/L),ALT,1,CHEM,18,27,6,34,3,0.529411764705882,4.5,0.794117647058823,,,NA,R2A1HI > 1.5,N,0
CDISCPILOT01,1015,01-701-1015,Placebo,0,Placebo,0,2014-01-02,2014-07-02,63,<65,1,WHITE,1,F,Y,,Y,Week 4,4,29,2014-01-30,WEEK 4,5,,Aspartate Aminotransferase (U/L),AST,2,CHEM,21,40,9,34,2.33333333333333,0.617647058823529,4.44444444444444,1.17647058823529,,,NA,R2A1HI > 1.5,N,0
CDISCPILOT01,1015,01-701-1015,Placebo,0,Placebo,0,2014-01-02,2014-07-02,63,<65,1,WHITE,1,F,Y,,Y,Week 4,4,29,2014-01-30,WEEK 4,5,,Bilirubin (umol/L),BILI,3,CHEM,6.84,10.26,3,21,2.28,0.325714285714286,3.42,0.488571428571429,,,NA,R2A1HI > 1.5,N,0
CDISCPILOT01,1015,01-701-1015,Placebo,0,Placebo,0,2014-01-02,2014-07-02,63,<65,1,WHITE,1,F,Y,,Y,Week 4,4,NA,NA,,NA,DERIVED,Bilirubin 1.5 x ULN,BILIHY,4,HYLAW,0,0,NA,NA,NA,NA,NA,NA,,Normal to Normal,1,,,NA
CDISCPILOT01,1015,01-701-1015,Placebo,0,Placebo,0,2014-01-02,2014-07-02,63,<65,1,WHITE,1,F,Y,,Y,Week 4,4,NA,NA,,NA,DERIVED,Transaminase 1.5 x ULN,TRANSHY,5,HYLAW,0,0,NA,NA,NA,NA,NA,NA,,Normal to Normal,1,,,NA
CDISCPILOT01,1015,01-701-1015,Placebo,0,Placebo,0,2014-01-02,2014-07-02,63,<65,1,WHITE,1,F,Y,,Y,Week 4,4,NA,NA,,NA,DERIVED,Total Bili 1.5 x ULN and Transaminase 1.5 x ULN,HYLAW,6,HYLAW,0,0,NA,NA,NA,NA,NA,NA,,Normal to Normal,1,,,NA
CDISCPILOT01,1015,01-701-1015,Placebo,0,Placebo,0,2014-01-02,2014-07-02,63,<65,1,WHITE,1,F,Y,,Y,Week 6,6,42,2014-02-12,WEEK 6,7,,Alanine Aminotransferase (U/L),ALT,1,CHEM,26,27,6,34,4.33333333333333,0.764705882352941,4.5,0.794117647058823,,,NA,R2A1HI > 1.5,N,0
CDISCPILOT01,1015,01-701-1015,Placebo,0,Placebo,0,2014-01-02,2014-07-02,63,<65,1,WHITE,1,F,Y,,Y,Week 6,6,42,2014-02-12,WEEK 6,7,,Aspartate Aminotransferase (U/L),AST,2,CHEM,26,40,9,34,2.88888888888889,0.764705882352941,4.44444444444444,1.17647058823529,,,NA,R2A1HI > 1.5,N,0
CDISCPILOT01,1015,01-701-1015,Placebo,0,Placebo,0,2014-01-02,2014-07-02,63,<65,1,WHITE,1,F,Y,,Y,Week 6,6,42,2014-02-12,WEEK 6,7,,Bilirubin (umol/L),BILI,3,CHEM,5.13,10.26,3,21,1.71,0.244285714285714,3.42,0.488571428571429,,,NA,R2A1HI > 1.5,N,0
CDISCPILOT01,1015,01-701-1015,Placebo,0,Placebo,0,2014-01-02,2014-07-02,63,<65,1,WHITE,1,F,Y,,Y,Week 6,6,NA,NA,,NA,DERIVED,Bilirubin 1.5 x ULN,BILIHY,4,HYLAW,0,0,NA,NA,NA,NA,NA,NA,,Normal to Normal,1,,,NA
CDISCPILOT01,1015,01-701-1015,Placebo,0,Placebo,0,2014-01-02,2014-07-02,63,<65,1,WHITE,1,F,Y,,Y,Week 6,6,NA,NA,,NA,DERIVED,Transaminase 1.5 x ULN,TRANSHY,5,HYLAW,0,0,NA,NA,NA,NA,NA,NA,,Normal to Normal,1,,,NA
CDISCPILOT01,1015,01-701-1015,Placebo,0,Placebo,0,2014-01-02,2014-07-02,63,<65,1,WHITE,1,F,Y,,Y,Week 6,6,NA,NA,,NA,DERIVED,Total Bili 1.5 x ULN and Transaminase 1.5 x ULN,HYLAW,6,HYLAW,0,0,NA,NA,NA,NA,NA,NA,,Normal to Normal,1,,,NA
CDISCPILOT01,1015,01-701-1015,Placebo,0,Placebo,0,2014-01-02,2014-07-02,63,<65,1,WHITE,1,F,Y,,Y,Week 8,8,63,2014-03-05,WEEK 8,8,,Alanine Aminotransferase (U/L),ALT,1,CHEM,22,27,6,34,3.66666666666667,0.647058823529412,4.5,0.794117647058823,,,NA,R2A1HI > 1.5,N,0
CDISCPILOT01,1015,01-701-1015,Placebo,0,Placebo,0,2014-01-02,2014-07-02,63,<65,1,WHITE,1,F,Y,,Y,Week 8,8,63,2014-03-05,WEEK 8,8,,Aspartate Aminotransferase (U/L),AST,2,CHEM,21,40,9,34,2.33333333333333,0.617647058823529,4.44444444444444,1.17647058823529,,,NA,R2A1HI > 1.5,N,0
CDISCPILOT01,1015,01-701-1015,Placebo,0,Placebo,0,2014-01-02,2014-07-02,63,<65,1,WHITE,1,F,Y,,Y,Week 8,8,63,2014-03-05,WEEK 8,8,,Bilirubin (umol/L),BILI,3,CHEM,8.55,10.26,3,21,2.85,0.407142857142857,3.42,0.488571428571429,,,NA,R2A1HI > 1.5,N,0
CDISCPILOT01,1015,01-701-1015,Placebo,0,Placebo,0,2014-01-02,2014-07-02,63,<65,1,WHITE,1,F,Y,,Y,Week 8,8,NA,NA,,NA,DERIVED,Bilirubin 1.5 x ULN,BILIHY,4,HYLAW,0,0,NA,NA,NA,NA,NA,NA,,Normal to Normal,1,,,NA
CDISCPILOT01,1015,01-701-1015,Placebo,0,Placebo,0,2014-01-02,2014-07-02,63,<65,1,WHITE,1,F,Y,,Y,Week 8,8,NA,NA,,NA,DERIVED,Transaminase 1.5 x ULN,TRANSHY,5,HYLAW,0,0,NA,NA,NA,NA,NA,NA,,Normal to Normal,1,,,NA
CDISCPILOT01,1015,01-701-1015,Placebo,0,Placebo,0,2014-01-02,2014-07-02,63,<65,1,WHITE,1,F,Y,,Y,Week 8,8,NA,NA,,NA,DERIVED,Total Bili 1.5 x ULN and Transaminase 1.5 x ULN,HYLAW,6,HYLAW,0,0,NA,NA,NA,NA,NA,NA,,Normal to Normal,1,,,NA
CDISCPILOT01,1015,01-701-1015,Placebo,0,Placebo,0,2014-01-02,2014-07-02,63,<65,1,WHITE,1,F,Y,,Y,Week 12,12,84,2014-03-26,WEEK 12,9,,Alanine Aminotransferase (U/L),ALT,1,CHEM,27,27,6,34,4.5,0.794117647058823,4.5,0.794117647058823,,,NA,R2A1HI > 1.5,N,0
CDISCPILOT01,1015,01-701-1015,Placebo,0,Placebo,0,2014-01-02,2014-07-02,63,<65,1,WHITE,1,F,Y,,Y,Week 12,12,84,2014-03-26,WEEK 12,9,,Aspartate Aminotransferase (U/L),AST,2,CHEM,22,40,9,34,2.44444444444444,0.647058823529412,4.44444444444444,1.17647058823529,,,NA,R2A1HI > 1.5,N,0
CDISCPILOT01,1015,01-701-1015,Placebo,0,Placebo,0,2014-01-02,2014-07-02,63,<65,1,WHITE,1,F,Y,,Y,Week 12,12,84,2014-03-26,WEEK 12,9,,Bilirubin (umol/L),BILI,3,CHEM,6.84,10.26,3,21,2.28,0.325714285714286,3.42,0.488571428571429,,,NA,R2A1HI > 1.5,N,0
CDISCPILOT01,1015,01-701-1015,Placebo,0,Placebo,0,2014-01-02,2014-07-02,63,<65,1,WHITE,1,F,Y,,Y,Week 12,12,NA,NA,,NA,DERIVED,Bilirubin 1.5 x ULN,BILIHY,4,HYLAW,0,0,NA,NA,NA,NA,NA,NA,,Normal to Normal,1,,,NA
CDISCPILOT01,1015,01-701-1015,Placebo,0,Placebo,0,2014-01-02,2014-07-02,63,<65,1,WHITE,1,F,Y,,Y,Week 12,12,NA,NA,,NA,DERIVED,Transaminase 1.5 x ULN,TRANSHY,5,HYLAW,0,0,NA,NA,NA,NA,NA,NA,,Normal to Normal,1,,,NA
CDISCPILOT01,1015,01-701-1015,Placebo,0,Placebo,0,2014-01-02,2014-07-02,63,<65,1,WHITE,1,F,Y,,Y,Week 12,12,NA,NA,,NA,DERIVED,Total Bili 1.5 x ULN and Transaminase 1.5 x ULN,HYLAW,6,HYLAW,0,0,NA,NA,NA,NA,NA,NA,,Normal to Normal,1,,,NA
CDISCPILOT01,1015,01-701-1015,Placebo,0,Placebo,0,2014-01-02,2014-07-02,63,<65,1,WHITE,1,F,Y,,Y,Week 16,16,126,2014-05-07,WEEK 16,10,,Alanine Aminotransferase (U/L),ALT,1,CHEM,17,27,6,34,2.83333333333333,0.5,4.5,0.794117647058823,,,NA,R2A1HI > 1.5,N,0
CDISCPILOT01,1015,01-701-1015,Placebo,0,Placebo,0,2014-01-02,2014-07-02,63,<65,1,WHITE,1,F,Y,,Y,Week 16,16,126,2014-05-07,WEEK 16,10,,Aspartate Aminotransferase (U/L),AST,2,CHEM,23,40,9,34,2.55555555555556,0.676470588235294,4.44444444444444,1.17647058823529,,,NA,R2A1HI > 1.5,N,0
CDISCPILOT01,1015,01-701-1015,Placebo,0,Placebo,0,2014-01-02,2014-07-02,63,<65,1,WHITE,1,F,Y,,Y,Week 16,16,126,2014-05-07,WEEK 16,10,,Bilirubin (umol/L),BILI,3,CHEM,6.84,10.26,3,21,2.28,0.325714285714286,3.42,0.488571428571429,,,NA,R2A1HI > 1.5,N,0
CDISCPILOT01,1015,01-701-1015,Placebo,0,Placebo,0,2014-01-02,2014-07-02,63,<65,1,WHITE,1,F,Y,,Y,Week 16,16,NA,NA,,NA,DERIVED,Bilirubin 1.5 x ULN,BILIHY,4,HYLAW,0,0,NA,NA,NA,NA,NA,NA,,Normal to Normal,1,,,NA
CDISCPILOT01,1015,01-701-1015,Placebo,0,Placebo,0,2014-01-02,2014-07-02,63,<65,1,WHITE,1,F,Y,,Y,Week 16,16,NA,NA,,NA,DERIVED,Transaminase 1.5 x ULN,TRANSHY,5,HYLAW,0,0,NA,NA,NA,NA,NA,NA,,Normal to Normal,1,,,NA
CDISCPILOT01,1015,01-701-1015,Placebo,0,Placebo,0,2014-01-02,2014-07-02,63,<65,1,WHITE,1,F,Y,,Y,Week 16,16,NA,NA,,NA,DERIVED,Total Bili 1.5 x ULN and Transaminase 1.5 x ULN,HYLAW,6,HYLAW,0,0,NA,NA,NA,NA,NA,NA,,Normal to Normal,1,,,NA
CDISCPILOT01,1015,01-701-1015,Placebo,0,Placebo,0,2014-01-02,2014-07-02,63,<65,1,WHITE,1,F,Y,,Y,Week 20,20,140,2014-05-21,WEEK 20,11,,Alanine Aminotransferase (U/L),ALT,1,CHEM,21,27,6,34,3.5,0.617647058823529,4.5,0.794117647058823,,,NA,R2A1HI > 1.5,N,0
CDISCPILOT01,1015,01-701-1015,Placebo,0,Placebo,0,2014-01-02,2014-07-02,63,<65,1,WHITE,1,F,Y,,Y,Week 20,20,140,2014-05-21,WEEK 20,11,,Aspartate Aminotransferase (U/L),AST,2,CHEM,19,40,9,34,2.11111111111111,0.558823529411765,4.44444444444444,1.17647058823529,,,NA,R2A1HI > 1.5,N,0
CDISCPILOT01,1015,01-701-1015,Placebo,0,Placebo,0,2014-01-02,2014-07-02,63,<65,1,WHITE,1,F,Y,,Y,Week 20,20,140,2014-05-21,WEEK 20,11,,Bilirubin (umol/L),BILI,3,CHEM,6.84,10.26,3,21,2.28,0.325714285714286,3.42,0.488571428571429,,,NA,R2A1HI > 1.5,N,0
CDISCPILOT01,1015,01-701-1015,Placebo,0,Placebo,0,2014-01-02,2014-07-02,63,<65,1,WHITE,1,F,Y,,Y,Week 20,20,NA,NA,,NA,DERIVED,Bilirubin 1.5 x ULN,BILIHY,4,HYLAW,0,0,NA,NA,NA,NA,NA,NA,,Normal to Normal,1,,,NA
CDISCPILOT01,1015,01-701-1015,Placebo,0,Placebo,0,2014-01-02,2014-07-02,63,<65,1,WHITE,1,F,Y,,Y,Week 20,20,NA,NA,,NA,DERIVED,Transaminase 1.5 x ULN,TRANSHY,5,HYLAW,0,0,NA,NA,NA,NA,NA,NA,,Normal to Normal,1,,,NA
CDISCPILOT01,1015,01-701-1015,Placebo,0,Placebo,0,2014-01-02,2014-07-02,63,<65,1,WHITE,1,F,Y,,Y,Week 20,20,NA,NA,,NA,DERIVED,Total Bili 1.5 x ULN and Transaminase 1.5 x ULN,HYLAW,6,HYLAW,0,0,NA,NA,NA,NA,NA,NA,,Normal to Normal,1,,,NA
CDISCPILOT01,1015,01-701-1015,Placebo,0,Placebo,0,2014-01-02,2014-07-02,63,<65,1,WHITE,1,F,Y,,Y,Week 24,24,168,2014-06-18,WEEK 24,12,,Alanine Aminotransferase (U/L),ALT,1,CHEM,23,27,6,34,3.83333333333333,0.676470588235294,4.5,0.794117647058823,,,NA,R2A1HI > 1.5,N,0
CDISCPILOT01,1015,01-701-1015,Placebo,0,Placebo,0,2014-01-02,2014-07-02,63,<65,1,WHITE,1,F,Y,,Y,Week 24,24,168,2014-06-18,WEEK 24,12,,Aspartate Aminotransferase (U/L),AST,2,CHEM,23,40,9,34,2.55555555555556,0.676470588235294,4.44444444444444,1.17647058823529,,,NA,R2A1HI > 1.5,N,0
CDISCPILOT01,1015,01-701-1015,Placebo,0,Placebo,0,2014-01-02,2014-07-02,63,<65,1,WHITE,1,F,Y,,Y,Week 24,24,168,2014-06-18,WEEK 24,12,,Bilirubin (umol/L),BILI,3,CHEM,6.84,10.26,3,21,2.28,0.325714285714286,3.42,0.488571428571429,,,NA,R2A1HI > 1.5,N,0
CDISCPILOT01,1015,01-701-1015,Placebo,0,Placebo,0,2014-01-02,2014-07-02,63,<65,1,WHITE,1,F,Y,,Y,Week 24,24,NA,NA,,NA,DERIVED,Bilirubin 1.5 x ULN,BILIHY,4,HYLAW,0,0,NA,NA,NA,NA,NA,NA,,Normal to Normal,1,,,NA
CDISCPILOT01,1015,01-701-1015,Placebo,0,Placebo,0,2014-01-02,2014-07-02,63,<65,1,WHITE,1,F,Y,,Y,Week 24,24,NA,NA,,NA,DERIVED,Transaminase 1.5 x ULN,TRANSHY,5,HYLAW,0,0,NA,NA,NA,NA,NA,NA,,Normal to Normal,1,,,NA
CDISCPILOT01,1015,01-701-1015,Placebo,0,Placebo,0,2014-01-02,2014-07-02,63,<65,1,WHITE,1,F,Y,,Y,Week 24,24,NA,NA,,NA,DERIVED,Total Bili 1.5 x ULN and Transaminase 1.5 x ULN,HYLAW,6,HYLAW,0,0,NA,NA,NA,NA,NA,NA,,Normal to Normal,1,,,NA
CDISCPILOT01,1023,01-701-1023,Placebo,0,Placebo,0,2012-08-05,2012-09-01,64,<65,1,WHITE,1,M,N,Y,Y,Baseline,0,-14,2012-07-22,SCREENING 1,1,,Alanine Aminotransferase (U/L),ALT,1,CHEM,23,23,6,43,3.83333333333333,0.534883720930233,3.83333333333333,0.534883720930233,Y,,NA,R2A1HI > 1.5,N,0
CDISCPILOT01,1023,01-701-1023,Placebo,0,Placebo,0,2012-08-05,2012-09-01,64,<65,1,WHITE,1,M,N,Y,Y,Baseline,0,-14,2012-07-22,SCREENING 1,1,,Aspartate Aminotransferase (U/L),AST,2,CHEM,21,21,11,36,1.90909090909091,0.583333333333333,1.90909090909091,0.583333333333333,Y,,NA,R2A1HI > 1.5,N,0
CDISCPILOT01,1023,01-701-1023,Placebo,0,Placebo,0,2012-08-05,2012-09-01,64,<65,1,WHITE,1,M,N,Y,Y,Baseline,0,-14,2012-07-22,SCREENING 1,1,,Bilirubin (umol/L),BILI,3,CHEM,11.97,11.97,3,21,3.99,0.57,3.99,0.57,Y,,NA,R2A1HI > 1.5,N,0
CDISCPILOT01,1023,01-701-1023,Placebo,0,Placebo,0,2012-08-05,2012-09-01,64,<65,1,WHITE,1,M,N,Y,Y,Baseline,0,NA,NA,,NA,DERIVED,Bilirubin 1.5 x ULN,BILIHY,4,HYLAW,0,0,NA,NA,NA,NA,NA,NA,Y,Normal to Normal,1,,,NA
CDISCPILOT01,1023,01-701-1023,Placebo,0,Placebo,0,2012-08-05,2012-09-01,64,<65,1,WHITE,1,M,N,Y,Y,Baseline,0,NA,NA,,NA,DERIVED,Transaminase 1.5 x ULN,TRANSHY,5,HYLAW,0,0,NA,NA,NA,NA,NA,NA,Y,Normal to Normal,1,,,NA
CDISCPILOT01,1023,01-701-1023,Placebo,0,Placebo,0,2012-08-05,2012-09-01,64,<65,1,WHITE,1,M,N,Y,Y,Baseline,0,NA,NA,,NA,DERIVED,Total Bili 1.5 x ULN and Transaminase 1.5 x ULN,HYLAW,6,HYLAW,0,0,NA,NA,NA,NA,NA,NA,Y,Normal to Normal,1,,,NA
CDISCPILOT01,1023,01-701-1023,Placebo,0,Placebo,0,2012-08-05,2012-09-01,64,<65,1,WHITE,1,M,N,Y,Y,Week 2,2,23,2012-08-27,WEEK 2,4,,Alanine Aminotransferase (U/L),ALT,1,CHEM,30,23,6,43,5,0.697674418604651,3.83333333333333,0.534883720930233,,,NA,R2A1HI > 1.5,N,0
CDISCPILOT01,1023,01-701-1023,Placebo,0,Placebo,0,2012-08-05,2012-09-01,64,<65,1,WHITE,1,M,N,Y,Y,Week 2,2,23,2012-08-27,WEEK 2,4,,Aspartate Aminotransferase (U/L),AST,2,CHEM,25,21,11,36,2.27272727272727,0.694444444444444,1.90909090909091,0.583333333333333,,,NA,R2A1HI > 1.5,N,0
CDISCPILOT01,1023,01-701-1023,Placebo,0,Placebo,0,2012-08-05,2012-09-01,64,<65,1,WHITE,1,M,N,Y,Y,Week 2,2,23,2012-08-27,WEEK 2,4,,Bilirubin (umol/L),BILI,3,CHEM,6.84,11.97,3,21,2.28,0.325714285714286,3.99,0.57,,,NA,R2A1HI > 1.5,N,0
CDISCPILOT01,1023,01-701-1023,Placebo,0,Placebo,0,2012-08-05,2012-09-01,64,<65,1,WHITE,1,M,N,Y,Y,Week 2,2,NA,NA,,NA,DERIVED,Bilirubin 1.5 x ULN,BILIHY,4,HYLAW,0,0,NA,NA,NA,NA,NA,NA,,Normal to Normal,1,,,NA
CDISCPILOT01,1023,01-701-1023,Placebo,0,Placebo,0,2012-08-05,2012-09-01,64,<65,1,WHITE,1,M,N,Y,Y,Week 2,2,NA,NA,,NA,DERIVED,Transaminase 1.5 x ULN,TRANSHY,5,HYLAW,0,0,NA,NA,NA,NA,NA,NA,,Normal to Normal,1,,,NA
CDISCPILOT01,1023,01-701-1023,Placebo,0,Placebo,0,2012-08-05,2012-09-01,64,<65,1,WHITE,1,M,N,Y,Y,Week 2,2,NA,NA,,NA,DERIVED,Total Bili 1.5 x ULN and Transaminase 1.5 x ULN,HYLAW,6,HYLAW,0,0,NA,NA,NA,NA,NA,NA,,Normal to Normal,1,,,NA
CDISCPILOT01,1023,01-701-1023,Placebo,0,Placebo,0,2012-08-05,2012-09-01,64,<65,1,WHITE,1,M,N,Y,Y,Week 4,4,29,2012-09-02,WEEK 4,5,,Alanine Aminotransferase (U/L),ALT,1,CHEM,38,23,6,43,6.33333333333333,0.883720930232558,3.83333333333333,0.534883720930233,,,NA,R2A1HI > 1.5,N,0
CDISCPILOT01,1023,01-701-1023,Placebo,0,Placebo,0,2012-08-05,2012-09-01,64,<65,1,WHITE,1,M,N,Y,Y,Week 4,4,29,2012-09-02,WEEK 4,5,,Aspartate Aminotransferase (U/L),AST,2,CHEM,30,21,11,36,2.72727272727273,0.833333333333333,1.90909090909091,0.583333333333333,,,NA,R2A1HI > 1.5,N,0
CDISCPILOT01,1023,01-701-1023,Placebo,0,Placebo,0,2012-08-05,2012-09-01,64,<65,1,WHITE,1,M,N,Y,Y,Week 4,4,29,2012-09-02,WEEK 4,5,,Bilirubin (umol/L),BILI,3,CHEM,8.55,11.97,3,21,2.85,0.407142857142857,3.99,0.57,,,NA,R2A1HI > 1.5,N,0
CDISCPILOT01,1023,01-701-1023,Placebo,0,Placebo,0,2012-08-05,2012-09-01,64,<65,1,WHITE,1,M,N,Y,Y,Week 4,4,NA,NA,,NA,DERIVED,Bilirubin 1.5 x ULN,BILIHY,4,HYLAW,0,0,NA,NA,NA,NA,NA,NA,,Normal to Normal,1,,,NA
CDISCPILOT01,1023,01-701-1023,Placebo,0,Placebo,0,2012-08-05,2012-09-01,64,<65,1,WHITE,1,M,N,Y,Y,Week 4,4,NA,NA,,NA,DERIVED,Transaminase 1.5 x ULN,TRANSHY,5,HYLAW,0,0,NA,NA,NA,NA,NA,NA,,Normal to Normal,1,,,NA
CDISCPILOT01,1023,01-701-1023,Placebo,0,Placebo,0,2012-08-05,2012-09-01,64,<65,1,WHITE,1,M,N,Y,Y,Week 4,4,NA,NA,,NA,DERIVED,Total Bili 1.5 x ULN and Transaminase 1.5 x ULN,HYLAW,6,HYLAW,0,0,NA,NA,NA,NA,NA,NA,,Normal to Normal,1,,,NA
CDISCPILOT01,1028,01-701-1028,Xanomeline High Dose,81,Xanomeline High Dose,81,2013-07-19,2014-01-14,71,65-80,2,WHITE,1,M,Y,,Y,Baseline,0,-8,2013-07-11,SCREENING 1,1,,Alanine Aminotransferase (U/L),ALT,1,CHEM,26,26,6,35,4.33333333333333,0.742857142857143,4.33333333333333,0.742857142857143,Y,,NA,R2A1HI > 1.5,N,0
CDISCPILOT01,1028,01-701-1028,Xanomeline High Dose,81,Xanomeline High Dose,81,2013-07-19,2014-01-14,71,65-80,2,WHITE,1,M,Y,,Y,Baseline,0,-8,2013-07-11,SCREENING 1,1,,Aspartate Aminotransferase (U/L),AST,2,CHEM,24,24,11,36,2.18181818181818,0.666666666666667,2.18181818181818,0.666666666666667,Y,,NA,R2A1HI > 1.5,N,0
CDISCPILOT01,1028,01-701-1028,Xanomeline High Dose,81,Xanomeline High Dose,81,2013-07-19,2014-01-14,71,65-80,2,WHITE,1,M,Y,,Y,Baseline,0,-8,2013-07-11,SCREENING 1,1,,Bilirubin (umol/L),BILI,3,CHEM,18.81,18.81,3,21,6.27,0.895714285714286,6.27,0.895714285714286,Y,,NA,R2A1HI > 1.5,N,0
CDISCPILOT01,1028,01-701-1028,Xanomeline High Dose,81,Xanomeline High Dose,81,2013-07-19,2014-01-14,71,65-80,2,WHITE,1,M,Y,,Y,Baseline,0,NA,NA,,NA,DERIVED,Bilirubin 1.5 x ULN,BILIHY,4,HYLAW,0,0,NA,NA,NA,NA,NA,NA,Y,Normal to Normal,1,,,NA
CDISCPILOT01,1028,01-701-1028,Xanomeline High Dose,81,Xanomeline High Dose,81,2013-07-19,2014-01-14,71,65-80,2,WHITE,1,M,Y,,Y,Baseline,0,NA,NA,,NA,DERIVED,Transaminase 1.5 x ULN,TRANSHY,5,HYLAW,0,0,NA,NA,NA,NA,NA,NA,Y,Normal to Normal,1,,,NA
CDISCPILOT01,1028,01-701-1028,Xanomeline High Dose,81,Xanomeline High Dose,81,2013-07-19,2014-01-14,71,65-80,2,WHITE,1,M,Y,,Y,Baseline,0,NA,NA,,NA,DERIVED,Total Bili 1.5 x ULN and Transaminase 1.5 x ULN,HYLAW,6,HYLAW,0,0,NA,NA,NA,NA,NA,NA,Y,Normal to Normal,1,,,NA
CDISCPILOT01,1028,01-701-1028,Xanomeline High Dose,81,Xanomeline High Dose,81,2013-07-19,2014-01-14,71,65-80,2,WHITE,1,M,Y,,Y,Week 2,2,14,2013-08-01,WEEK 2,4,,Alanine Aminotransferase (U/L),ALT,1,CHEM,30,26,6,35,5,0.857142857142857,4.33333333333333,0.742857142857143,,,NA,R2A1HI > 1.5,N,0
CDISCPILOT01,1028,01-701-1028,Xanomeline High Dose,81,Xanomeline High Dose,81,2013-07-19,2014-01-14,71,65-80,2,WHITE,1,M,Y,,Y,Week 2,2,14,2013-08-01,WEEK 2,4,,Aspartate Aminotransferase (U/L),AST,2,CHEM,23,24,11,36,2.09090909090909,0.638888888888889,2.18181818181818,0.666666666666667,,,NA,R2A1HI > 1.5,N,0
CDISCPILOT01,1028,01-701-1028,Xanomeline High Dose,81,Xanomeline High Dose,81,2013-07-19,2014-01-14,71,65-80,2,WHITE,1,M,Y,,Y,Week 2,2,14,2013-08-01,WEEK 2,4,,Bilirubin (umol/L),BILI,3,CHEM,11.97,18.81,3,21,3.99,0.57,6.27,0.895714285714286,,,NA,R2A1HI > 1.5,N,0
CDISCPILOT01,1028,01-701-1028,Xanomeline High Dose,81,Xanomeline High Dose,81,2013-07-19,2014-01-14,71,65-80,2,WHITE,1,M,Y,,Y,Week 2,2,NA,NA,,NA,DERIVED,Bilirubin 1.5 x ULN,BILIHY,4,HYLAW,0,0,NA,NA,NA,NA,NA,NA,,Normal to Normal,1,,,NA
CDISCPILOT01,1028,01-701-1028,Xanomeline High Dose,81,Xanomeline High Dose,81,2013-07-19,2014-01-14,71,65-80,2,WHITE,1,M,Y,,Y,Week 2,2,NA,NA,,NA,DERIVED,Transaminase 1.5 x ULN,TRANSHY,5,HYLAW,0,0,NA,NA,NA,NA,NA,NA,,Normal to Normal,1,,,NA
CDISCPILOT01,1028,01-701-1028,Xanomeline High Dose,81,Xanomeline High Dose,81,2013-07-19,2014-01-14,71,65-80,2,WHITE,1,M,Y,,Y,Week 2,2,NA,NA,,NA,DERIVED,Total Bili 1.5 x ULN and Transaminase 1.5 x ULN,HYLAW,6,HYLAW,0,0,NA,NA,NA,NA,NA,NA,,Normal to Normal,1,,,NA
CDISCPILOT01,1028,01-701-1028,Xanomeline High Dose,81,Xanomeline High Dose,81,2013-07-19,2014-01-14,71,65-80,2,WHITE,1,M,Y,,Y,Week 4,4,27,2013-08-14,WEEK 4,5,,Alanine Aminotransferase (U/L),ALT,1,CHEM,29,26,6,35,4.83333333333333,0.828571428571429,4.33333333333333,0.742857142857143,,,NA,R2A1HI > 1.5,N,0
CDISCPILOT01,1028,01-701-1028,Xanomeline High Dose,81,Xanomeline High Dose,81,2013-07-19,2014-01-14,71,65-80,2,WHITE,1,M,Y,,Y,Week 4,4,27,2013-08-14,WEEK 4,5,,Aspartate Aminotransferase (U/L),AST,2,CHEM,24,24,11,36,2.18181818181818,0.666666666666667,2.18181818181818,0.666666666666667,,,NA,R2A1HI > 1.5,N,0
CDISCPILOT01,1028,01-701-1028,Xanomeline High Dose,81,Xanomeline High Dose,81,2013-07-19,2014-01-14,71,65-80,2,WHITE,1,M,Y,,Y,Week 4,4,27,2013-08-14,WEEK 4,5,,Bilirubin (umol/L),BILI,3,CHEM,13.68,18.81,3,21,4.56,0.651428571428571,6.27,0.895714285714286,,,NA,R2A1HI > 1.5,N,0
CDISCPILOT01,1028,01-701-1028,Xanomeline High Dose,81,Xanomeline High Dose,81,2013-07-19,2014-01-14,71,65-80,2,WHITE,1,M,Y,,Y,Week 4,4,NA,NA,,NA,DERIVED,Bilirubin 1.5 x ULN,BILIHY,4,HYLAW,0,0,NA,NA,NA,NA,NA,NA,,Normal to Normal,1,,,NA
CDISCPILOT01,1028,01-701-1028,Xanomeline High Dose,81,Xanomeline High Dose,81,2013-07-19,2014-01-14,71,65-80,2,WHITE,1,M,Y,,Y,Week 4,4,NA,NA,,NA,DERIVED,Transaminase 1.5 x ULN,TRANSHY,5,HYLAW,0,0,NA,NA,NA,NA,NA,NA,,Normal to Normal,1,,,NA
CDISCPILOT01,1028,01-701-1028,Xanomeline High Dose,81,Xanomeline High Dose,81,2013-07-19,2014-01-14,71,65-80,2,WHITE,1,M,Y,,Y,Week 4,4,NA,NA,,NA,DERIVED,Total Bili 1.5 x ULN and Transaminase 1.5 x ULN,HYLAW,6,HYLAW,0,0,NA,NA,NA,NA,NA,NA,,Normal to Normal,1,,,NA
CDISCPILOT01,1028,01-701-1028,Xanomeline High Dose,81,Xanomeline High Dose,81,2013-07-19,2014-01-14,71,65-80,2,WHITE,1,M,Y,,Y,Week 6,6,42,2013-08-29,WEEK 6,7,,Alanine Aminotransferase (U/L),ALT,1,CHEM,32,26,6,35,5.33333333333333,0.914285714285714,4.33333333333333,0.742857142857143,,,NA,R2A1HI > 1.5,N,0
CDISCPILOT01,1028,01-701-1028,Xanomeline High Dose,81,Xanomeline High Dose,81,2013-07-19,2014-01-14,71,65-80,2,WHITE,1,M,Y,,Y,Week 6,6,42,2013-08-29,WEEK 6,7,,Aspartate Aminotransferase (U/L),AST,2,CHEM,26,24,11,36,2.36363636363636,0.722222222222222,2.18181818181818,0.666666666666667,,,NA,R2A1HI > 1.5,N,0
CDISCPILOT01,1028,01-701-1028,Xanomeline High Dose,81,Xanomeline High Dose,81,2013-07-19,2014-01-14,71,65-80,2,WHITE,1,M,Y,,Y,Week 6,6,42,2013-08-29,WEEK 6,7,,Bilirubin (umol/L),BILI,3,CHEM,11.97,18.81,3,21,3.99,0.57,6.27,0.895714285714286,,,NA,R2A1HI > 1.5,N,0
CDISCPILOT01,1028,01-701-1028,Xanomeline High Dose,81,Xanomeline High Dose,81,2013-07-19,2014-01-14,71,65-80,2,WHITE,1,M,Y,,Y,Week 6,6,NA,NA,,NA,DERIVED,Bilirubin 1.5 x ULN,BILIHY,4,HYLAW,0,0,NA,NA,NA,NA,NA,NA,,Normal to Normal,1,,,NA
CDISCPILOT01,1028,01-701-1028,Xanomeline High Dose,81,Xanomeline High Dose,81,2013-07-19,2014-01-14,71,65-80,2,WHITE,1,M,Y,,Y,Week 6,6,NA,NA,,NA,DERIVED,Transaminase 1.5 x ULN,TRANSHY,5,HYLAW,0,0,NA,NA,NA,NA,NA,NA,,Normal to Normal,1,,,NA
CDISCPILOT01,1028,01-701-1028,Xanomeline High Dose,81,Xanomeline High Dose,81,2013-07-19,2014-01-14,71,65-80,2,WHITE,1,M,Y,,Y,Week 6,6,NA,NA,,NA,DERIVED,Total Bili 1.5 x ULN and Transaminase 1.5 x ULN,HYLAW,6,HYLAW,0,0,NA,NA,NA,NA,NA,NA,,Normal to Normal,1,,,NA
CDISCPILOT01,1028,01-701-1028,Xanomeline High Dose,81,Xanomeline High Dose,81,2013-07-19,2014-01-14,71,65-80,2,WHITE,1,M,Y,,Y,Week 8,8,54,2013-09-10,WEEK 8,8,,Alanine Aminotransferase (U/L),ALT,1,CHEM,33,26,6,35,5.5,0.942857142857143,4.33333333333333,0.742857142857143,,,NA,R2A1HI > 1.5,N,0
CDISCPILOT01,1028,01-701-1028,Xanomeline High Dose,81,Xanomeline High Dose,81,2013-07-19,2014-01-14,71,65-80,2,WHITE,1,M,Y,,Y,Week 8,8,54,2013-09-10,WEEK 8,8,,Aspartate Aminotransferase (U/L),AST,2,CHEM,28,24,11,36,2.54545454545455,0.777777777777778,2.18181818181818,0.666666666666667,,,NA,R2A1HI > 1.5,N,0
CDISCPILOT01,1028,01-701-1028,Xanomeline High Dose,81,Xanomeline High Dose,81,2013-07-19,2014-01-14,71,65-80,2,WHITE,1,M,Y,,Y,Week 8,8,54,2013-09-10,WEEK 8,8,,Bilirubin (umol/L),BILI,3,CHEM,13.68,18.81,3,21,4.56,0.651428571428571,6.27,0.895714285714286,,,NA,R2A1HI > 1.5,N,0
CDISCPILOT01,1028,01-701-1028,Xanomeline High Dose,81,Xanomeline High Dose,81,2013-07-19,2014-01-14,71,65-80,2,WHITE,1,M,Y,,Y,Week 8,8,NA,NA,,NA,DERIVED,Bilirubin 1.5 x ULN,BILIHY,4,HYLAW,0,0,NA,NA,NA,NA,NA,NA,,Normal to Normal,1,,,NA
CDISCPILOT01,1028,01-701-1028,Xanomeline High Dose,81,Xanomeline High Dose,81,2013-07-19,2014-01-14,71,65-80,2,WHITE,1,M,Y,,Y,Week 8,8,NA,NA,,NA,DERIVED,Transaminase 1.5 x ULN,TRANSHY,5,HYLAW,0,0,NA,NA,NA,NA,NA,NA,,Normal to Normal,1,,,NA
CDISCPILOT01,1028,01-701-1028,Xanomeline High Dose,81,Xanomeline High Dose,81,2013-07-19,2014-01-14,71,65-80,2,WHITE,1,M,Y,,Y,Week 8,8,NA,NA,,NA,DERIVED,Total Bili 1.5 x ULN and Transaminase 1.5 x ULN,HYLAW,6,HYLAW,0,0,NA,NA,NA,NA,NA,NA,,Normal to Normal,1,,,NA
CDISCPILOT01,1028,01-701-1028,Xanomeline High Dose,81,Xanomeline High Dose,81,2013-07-19,2014-01-14,71,65-80,2,WHITE,1,M,Y,,Y,Week 12,12,83,2013-10-09,WEEK 12,9,,Alanine Aminotransferase (U/L),ALT,1,CHEM,29,26,6,35,4.83333333333333,0.828571428571429,4.33333333333333,0.742857142857143,,,NA,R2A1HI > 1.5,N,0
CDISCPILOT01,1028,01-701-1028,Xanomeline High Dose,81,Xanomeline High Dose,81,2013-07-19,2014-01-14,71,65-80,2,WHITE,1,M,Y,,Y,Week 12,12,83,2013-10-09,WEEK 12,9,,Aspartate Aminotransferase (U/L),AST,2,CHEM,28,24,11,36,2.54545454545455,0.777777777777778,2.18181818181818,0.666666666666667,,,NA,R2A1HI > 1.5,N,0
CDISCPILOT01,1028,01-701-1028,Xanomeline High Dose,81,Xanomeline High Dose,81,2013-07-19,2014-01-14,71,65-80,2,WHITE,1,M,Y,,Y,Week 12,12,83,2013-10-09,WEEK 12,9,,Bilirubin (umol/L),BILI,3,CHEM,13.68,18.81,3,21,4.56,0.651428571428571,6.27,0.895714285714286,,,NA,R2A1HI > 1.5,N,0
CDISCPILOT01,1028,01-701-1028,Xanomeline High Dose,81,Xanomeline High Dose,81,2013-07-19,2014-01-14,71,65-80,2,WHITE,1,M,Y,,Y,Week 12,12,NA,NA,,NA,DERIVED,Bilirubin 1.5 x ULN,BILIHY,4,HYLAW,0,0,NA,NA,NA,NA,NA,NA,,Normal to Normal,1,,,NA
CDISCPILOT01,1028,01-701-1028,Xanomeline High Dose,81,Xanomeline High Dose,81,2013-07-19,2014-01-14,71,65-80,2,WHITE,1,M,Y,,Y,Week 12,12,NA,NA,,NA,DERIVED,Transaminase 1.5 x ULN,TRANSHY,5,HYLAW,0,0,NA,NA,NA,NA,NA,NA,,Normal to Normal,1,,,NA
CDISCPILOT01,1028,01-701-1028,Xanomeline High Dose,81,Xanomeline High Dose,81,2013-07-19,2014-01-14,71,65-80,2,WHITE,1,M,Y,,Y,Week 12,12,NA,NA,,NA,DERIVED,Total Bili 1.5 x ULN and Transaminase 1.5 x ULN,HYLAW,6,HYLAW,0,0,NA,NA,NA,NA,NA,NA,,Normal to Normal,1,,,NA
CDISCPILOT01,1028,01-701-1028,Xanomeline High Dose,81,Xanomeline High Dose,81,2013-07-19,2014-01-14,71,65-80,2,WHITE,1,M,Y,,Y,Week 16,16,111,2013-11-06,WEEK 16,10,,Alanine Aminotransferase (U/L),ALT,1,CHEM,24,26,6,35,4,0.685714285714286,4.33333333333333,0.742857142857143,,,NA,R2A1HI > 1.5,N,0
CDISCPILOT01,1028,01-701-1028,Xanomeline High Dose,81,Xanomeline High Dose,81,2013-07-19,2014-01-14,71,65-80,2,WHITE,1,M,Y,,Y,Week 16,16,111,2013-11-06,WEEK 16,10,,Aspartate Aminotransferase (U/L),AST,2,CHEM,18,24,11,36,1.63636363636364,0.5,2.18181818181818,0.666666666666667,,,NA,R2A1HI > 1.5,N,0
CDISCPILOT01,1028,01-701-1028,Xanomeline High Dose,81,Xanomeline High Dose,81,2013-07-19,2014-01-14,71,65-80,2,WHITE,1,M,Y,,Y,Week 16,16,111,2013-11-06,WEEK 16,10,,Bilirubin (umol/L),BILI,3,CHEM,11.97,18.81,3,21,3.99,0.57,6.27,0.895714285714286,,,NA,R2A1HI > 1.5,N,0
CDISCPILOT01,1028,01-701-1028,Xanomeline High Dose,81,Xanomeline High Dose,81,2013-07-19,2014-01-14,71,65-80,2,WHITE,1,M,Y,,Y,Week 16,16,NA,NA,,NA,DERIVED,Bilirubin 1.5 x ULN,BILIHY,4,HYLAW,0,0,NA,NA,NA,NA,NA,NA,,Normal to Normal,1,,,NA
CDISCPILOT01,1028,01-701-1028,Xanomeline High Dose,81,Xanomeline High Dose,81,2013-07-19,2014-01-14,71,65-80,2,WHITE,1,M,Y,,Y,Week 16,16,NA,NA,,NA,DERIVED,Transaminase 1.5 x ULN,TRANSHY,5,HYLAW,0,0,NA,NA,NA,NA,NA,NA,,Normal to Normal,1,,,NA
CDISCPILOT01,1028,01-701-1028,Xanomeline High Dose,81,Xanomeline High Dose,81,2013-07-19,2014-01-14,71,65-80,2,WHITE,1,M,Y,,Y,Week 16,16,NA,NA,,NA,DERIVED,Total Bili 1.5 x ULN and Transaminase 1.5 x ULN,HYLAW,6,HYLAW,0,0,NA,NA,NA,NA,NA,NA,,Normal to Normal,1,,,NA
CDISCPILOT01,1028,01-701-1028,Xanomeline High Dose,81,Xanomeline High Dose,81,2013-07-19,2014-01-14,71,65-80,2,WHITE,1,M,Y,,Y,Week 20,20,139,2013-12-04,WEEK 20,11,,Alanine Aminotransferase (U/L),ALT,1,CHEM,22,26,6,35,3.66666666666667,0.628571428571429,4.33333333333333,0.742857142857143,,,NA,R2A1HI > 1.5,N,0
CDISCPILOT01,1028,01-701-1028,Xanomeline High Dose,81,Xanomeline High Dose,81,2013-07-19,2014-01-14,71,65-80,2,WHITE,1,M,Y,,Y,Week 20,20,139,2013-12-04,WEEK 20,11,,Aspartate Aminotransferase (U/L),AST,2,CHEM,21,24,11,36,1.90909090909091,0.583333333333333,2.18181818181818,0.666666666666667,,,NA,R2A1HI > 1.5,N,0
CDISCPILOT01,1028,01-701-1028,Xanomeline High Dose,81,Xanomeline High Dose,81,2013-07-19,2014-01-14,71,65-80,2,WHITE,1,M,Y,,Y,Week 20,20,139,2013-12-04,WEEK 20,11,,Bilirubin (umol/L),BILI,3,CHEM,13.68,18.81,3,21,4.56,0.651428571428571,6.27,0.895714285714286,,,NA,R2A1HI > 1.5,N,0
CDISCPILOT01,1028,01-701-1028,Xanomeline High Dose,81,Xanomeline High Dose,81,2013-07-19,2014-01-14,71,65-80,2,WHITE,1,M,Y,,Y,Week 20,20,NA,NA,,NA,DERIVED,Bilirubin 1.5 x ULN,BILIHY,4,HYLAW,0,0,NA,NA,NA,NA,NA,NA,,Normal to Normal,1,,,NA
CDISCPILOT01,1028,01-701-1028,Xanomeline High Dose,81,Xanomeline High Dose,81,2013-07-19,2014-01-14,71,65-80,2,WHITE,1,M,Y,,Y,Week 20,20,NA,NA,,NA,DERIVED,Transaminase 1.5 x ULN,TRANSHY,5,HYLAW,0,0,NA,NA,NA,NA,NA,NA,,Normal to Normal,1,,,NA
CDISCPILOT01,1028,01-701-1028,Xanomeline High Dose,81,Xanomeline High Dose,81,2013-07-19,2014-01-14,71,65-80,2,WHITE,1,M,Y,,Y,Week 20,20,NA,NA,,NA,DERIVED,Total Bili 1.5 x ULN and Transaminase 1.5 x ULN,HYLAW,6,HYLAW,0,0,NA,NA,NA,NA,NA,NA,,Normal to Normal,1,,,NA
CDISCPILOT01,1028,01-701-1028,Xanomeline High Dose,81,Xanomeline High Dose,81,2013-07-19,2014-01-14,71,65-80,2,WHITE,1,M,Y,,Y,Week 24,24,172,2014-01-06,WEEK 24,12,,Alanine Aminotransferase (U/L),ALT,1,CHEM,24,26,6,35,4,0.685714285714286,4.33333333333333,0.742857142857143,,,NA,R2A1HI > 1.5,N,0
CDISCPILOT01,1028,01-701-1028,Xanomeline High Dose,81,Xanomeline High Dose,81,2013-07-19,2014-01-14,71,65-80,2,WHITE,1,M,Y,,Y,Week 24,24,172,2014-01-06,WEEK 24,12,,Aspartate Aminotransferase (U/L),AST,2,CHEM,23,24,11,36,2.09090909090909,0.638888888888889,2.18181818181818,0.666666666666667,,,NA,R2A1HI > 1.5,N,0
CDISCPILOT01,1028,01-701-1028,Xanomeline High Dose,81,Xanomeline High Dose,81,2013-07-19,2014-01-14,71,65-80,2,WHITE,1,M,Y,,Y,Week 24,24,172,2014-01-06,WEEK 24,12,,Bilirubin (umol/L),BILI,3,CHEM,15.39,18.81,3,21,5.13,0.732857142857143,6.27,0.895714285714286,,,NA,R2A1HI > 1.5,N,0
CDISCPILOT01,1028,01-701-1028,Xanomeline High Dose,81,Xanomeline High Dose,81,2013-07-19,2014-01-14,71,65-80,2,WHITE,1,M,Y,,Y,Week 24,24,NA,NA,,NA,DERIVED,Bilirubin 1.5 x ULN,BILIHY,4,HYLAW,0,0,NA,NA,NA,NA,NA,NA,,Normal to Normal,1,,,NA
CDISCPILOT01,1028,01-701-1028,Xanomeline High Dose,81,Xanomeline High Dose,81,2013-07-19,2014-01-14,71,65-80,2,WHITE,1,M,Y,,Y,Week 24,24,NA,NA,,NA,DERIVED,Transaminase 1.5 x ULN,TRANSHY,5,HYLAW,0,0,NA,NA,NA,NA,NA,NA,,Normal to Normal,1,,,NA
CDISCPILOT01,1028,01-701-1028,Xanomeline High Dose,81,Xanomeline High Dose,81,2013-07-19,2014-01-14,71,65-80,2,WHITE,1,M,Y,,Y,Week 24,24,NA,NA,,NA,DERIVED,Total Bili 1.5 x ULN and Transaminase 1.5 x ULN,HYLAW,6,HYLAW,0,0,NA,NA,NA,NA,NA,NA,,Normal to Normal,1,,,NA
CDISCPILOT01,1033,01-701-1033,Xanomeline Low Dose,54,Xanomeline Low Dose,54,2014-03-18,2014-03-31,74,65-80,2,WHITE,1,M,N,,Y,Baseline,0,-8,2014-03-10,SCREENING 1,1,,Alanine Aminotransferase (U/L),ALT,1,CHEM,16,16,6,35,2.66666666666667,0.457142857142857,2.66666666666667,0.457142857142857,Y,,NA,R2A1HI > 1.5,N,0
CDISCPILOT01,1033,01-701-1033,Xanomeline Low Dose,54,Xanomeline Low Dose,54,2014-03-18,2014-03-31,74,65-80,2,WHITE,1,M,N,,Y,Baseline,0,-8,2014-03-10,SCREENING 1,1,,Aspartate Aminotransferase (U/L),AST,2,CHEM,20,20,11,36,1.81818181818182,0.555555555555556,1.81818181818182,0.555555555555556,Y,,NA,R2A1HI > 1.5,N,0
CDISCPILOT01,1033,01-701-1033,Xanomeline Low Dose,54,Xanomeline Low Dose,54,2014-03-18,2014-03-31,74,65-80,2,WHITE,1,M,N,,Y,Baseline,0,-8,2014-03-10,SCREENING 1,1,,Bilirubin (umol/L),BILI,3,CHEM,13.68,13.68,3,21,4.56,0.651428571428571,4.56,0.651428571428571,Y,,NA,R2A1HI > 1.5,N,0
CDISCPILOT01,1033,01-701-1033,Xanomeline Low Dose,54,Xanomeline Low Dose,54,2014-03-18,2014-03-31,74,65-80,2,WHITE,1,M,N,,Y,Baseline,0,NA,NA,,NA,DERIVED,Bilirubin 1.5 x ULN,BILIHY,4,HYLAW,0,0,NA,NA,NA,NA,NA,NA,Y,Normal to Normal,1,,,NA
CDISCPILOT01,1033,01-701-1033,Xanomeline Low Dose,54,Xanomeline Low Dose,54,2014-03-18,2014-03-31,74,65-80,2,WHITE,1,M,N,,Y,Baseline,0,NA,NA,,NA,DERIVED,Transaminase 1.5 x ULN,TRANSHY,5,HYLAW,0,0,NA,NA,NA,NA,NA,NA,Y,Normal to Normal,1,,,NA
CDISCPILOT01,1033,01-701-1033,Xanomeline Low Dose,54,Xanomeline Low Dose,54,2014-03-18,2014-03-31,74,65-80,2,WHITE,1,M,N,,Y,Baseline,0,NA,NA,,NA,DERIVED,Total Bili 1.5 x ULN and Transaminase 1.5 x ULN,HYLAW,6,HYLAW,0,0,NA,NA,NA,NA,NA,NA,Y,Normal to Normal,1,,,NA
CDISCPILOT01,1033,01-701-1033,Xanomeline Low Dose,54,Xanomeline Low Dose,54,2014-03-18,2014-03-31,74,65-80,2,WHITE,1,M,N,,Y,Week 2,2,15,2014-04-01,WEEK 2,4,,Alanine Aminotransferase (U/L),ALT,1,CHEM,35,16,6,35,5.83333333333333,1,2.66666666666667,0.457142857142857,,,NA,R2A1HI > 1.5,N,0
CDISCPILOT01,1033,01-701-1033,Xanomeline Low Dose,54,Xanomeline Low Dose,54,2014-03-18,2014-03-31,74,65-80,2,WHITE,1,M,N,,Y,Week 2,2,15,2014-04-01,WEEK 2,4,,Aspartate Aminotransferase (U/L),AST,2,CHEM,26,20,11,36,2.36363636363636,0.722222222222222,1.81818181818182,0.555555555555556,,,NA,R2A1HI > 1.5,N,0
CDISCPILOT01,1033,01-701-1033,Xanomeline Low Dose,54,Xanomeline Low Dose,54,2014-03-18,2014-03-31,74,65-80,2,WHITE,1,M,N,,Y,Week 2,2,15,2014-04-01,WEEK 2,4,,Bilirubin (umol/L),BILI,3,CHEM,6.84,13.68,3,21,2.28,0.325714285714286,4.56,0.651428571428571,,,NA,R2A1HI > 1.5,N,0
CDISCPILOT01,1033,01-701-1033,Xanomeline Low Dose,54,Xanomeline Low Dose,54,2014-03-18,2014-03-31,74,65-80,2,WHITE,1,M,N,,Y,Week 2,2,NA,NA,,NA,DERIVED,Bilirubin 1.5 x ULN,BILIHY,4,HYLAW,0,0,NA,NA,NA,NA,NA,NA,,Normal to Normal,1,,,NA
CDISCPILOT01,1033,01-701-1033,Xanomeline Low Dose,54,Xanomeline Low Dose,54,2014-03-18,2014-03-31,74,65-80,2,WHITE,1,M,N,,Y,Week 2,2,NA,NA,,NA,DERIVED,Transaminase 1.5 x ULN,TRANSHY,5,HYLAW,0,0,NA,NA,NA,NA,NA,NA,,Normal to Normal,1,,,NA
CDISCPILOT01,1033,01-701-1033,Xanomeline Low Dose,54,Xanomeline Low Dose,54,2014-03-18,2014-03-31,74,65-80,2,WHITE,1,M,N,,Y,Week 2,2,NA,NA,,NA,DERIVED,Total Bili 1.5 x ULN and Transaminase 1.5 x ULN,HYLAW,6,HYLAW,0,0,NA,NA,NA,NA,NA,NA,,Normal to Normal,1,,,NA
CDISCPILOT01,1033,01-701-1033,Xanomeline Low Dose,54,Xanomeline Low Dose,54,2014-03-18,2014-03-31,74,65-80,2,WHITE,1,M,N,,Y,Week 4,4,28,2014-04-14,WEEK 4,5,,Alanine Aminotransferase (U/L),ALT,1,CHEM,14,16,6,35,2.33333333333333,0.4,2.66666666666667,0.457142857142857,,,NA,R2A1HI > 1.5,N,0
CDISCPILOT01,1033,01-701-1033,Xanomeline Low Dose,54,Xanomeline Low Dose,54,2014-03-18,2014-03-31,74,65-80,2,WHITE,1,M,N,,Y,Week 4,4,28,2014-04-14,WEEK 4,5,,Aspartate Aminotransferase (U/L),AST,2,CHEM,20,20,11,36,1.81818181818182,0.555555555555556,1.81818181818182,0.555555555555556,,,NA,R2A1HI > 1.5,N,0
CDISCPILOT01,1033,01-701-1033,Xanomeline Low Dose,54,Xanomeline Low Dose,54,2014-03-18,2014-03-31,74,65-80,2,WHITE,1,M,N,,Y,Week 4,4,28,2014-04-14,WEEK 4,5,,Bilirubin (umol/L),BILI,3,CHEM,15.39,13.68,3,21,5.13,0.732857142857143,4.56,0.651428571428571,,,NA,R2A1HI > 1.5,N,0
CDISCPILOT01,1033,01-701-1033,Xanomeline Low Dose,54,Xanomeline Low Dose,54,2014-03-18,2014-03-31,74,65-80,2,WHITE,1,M,N,,Y,Week 4,4,NA,NA,,NA,DERIVED,Bilirubin 1.5 x ULN,BILIHY,4,HYLAW,0,0,NA,NA,NA,NA,NA,NA,,Normal to Normal,1,,,NA
CDISCPILOT01,1033,01-701-1033,Xanomeline Low Dose,54,Xanomeline Low Dose,54,2014-03-18,2014-03-31,74,65-80,2,WHITE,1,M,N,,Y,Week 4,4,NA,NA,,NA,DERIVED,Transaminase 1.5 x ULN,TRANSHY,5,HYLAW,0,0,NA,NA,NA,NA,NA,NA,,Normal to Normal,1,,,NA
CDISCPILOT01,1033,01-701-1033,Xanomeline Low Dose,54,Xanomeline Low Dose,54,2014-03-18,2014-03-31,74,65-80,2,WHITE,1,M,N,,Y,Week 4,4,NA,NA,,NA,DERIVED,Total Bili 1.5 x ULN and Transaminase 1.5 x ULN,HYLAW,6,HYLAW,0,0,NA,NA,NA,NA,NA,NA,,Normal to Normal,1,,,NA
CDISCPILOT01,1034,01-701-1034,Xanomeline High Dose,81,Xanomeline High Dose,81,2014-07-01,2014-12-30,77,65-80,2,WHITE,1,F,Y,,Y,Baseline,0,-7,2014-06-24,SCREENING 1,1,,Alanine Aminotransferase (U/L),ALT,1,CHEM,15,15,6,32,2.5,0.46875,2.5,0.46875,Y,,NA,R2A1HI > 1.5,N,0
CDISCPILOT01,1034,01-701-1034,Xanomeline High Dose,81,Xanomeline High Dose,81,2014-07-01,2014-12-30,77,65-80,2,WHITE,1,F,Y,,Y,Baseline,0,-7,2014-06-24,SCREENING 1,1,,Aspartate Aminotransferase (U/L),AST,2,CHEM,23,23,9,34,2.55555555555556,0.676470588235294,2.55555555555556,0.676470588235294,Y,,NA,R2A1HI > 1.5,N,0
CDISCPILOT01,1034,01-701-1034,Xanomeline High Dose,81,Xanomeline High Dose,81,2014-07-01,2014-12-30,77,65-80,2,WHITE,1,F,Y,,Y,Baseline,0,-7,2014-06-24,SCREENING 1,1,,Bilirubin (umol/L),BILI,3,CHEM,10.26,10.26,3,21,3.42,0.488571428571429,3.42,0.488571428571429,Y,,NA,R2A1HI > 1.5,N,0
CDISCPILOT01,1034,01-701-1034,Xanomeline High Dose,81,Xanomeline High Dose,81,2014-07-01,2014-12-30,77,65-80,2,WHITE,1,F,Y,,Y,Baseline,0,NA,NA,,NA,DERIVED,Bilirubin 1.5 x ULN,BILIHY,4,HYLAW,0,0,NA,NA,NA,NA,NA,NA,Y,Normal to Normal,1,,,NA
CDISCPILOT01,1034,01-701-1034,Xanomeline High Dose,81,Xanomeline High Dose,81,2014-07-01,2014-12-30,77,65-80,2,WHITE,1,F,Y,,Y,Baseline,0,NA,NA,,NA,DERIVED,Transaminase 1.5 x ULN,TRANSHY,5,HYLAW,0,0,NA,NA,NA,NA,NA,NA,Y,Normal to Normal,1,,,NA
CDISCPILOT01,1034,01-701-1034,Xanomeline High Dose,81,Xanomeline High Dose,81,2014-07-01,2014-12-30,77,65-80,2,WHITE,1,F,Y,,Y,Baseline,0,NA,NA,,NA,DERIVED,Total Bili 1.5 x ULN and Transaminase 1.5 x ULN,HYLAW,6,HYLAW,0,0,NA,NA,NA,NA,NA,NA,Y,Normal to Normal,1,,,NA
CDISCPILOT01,1034,01-701-1034,Xanomeline High Dose,81,Xanomeline High Dose,81,2014-07-01,2014-12-30,77,65-80,2,WHITE,1,F,Y,,Y,Week 2,2,15,2014-07-15,WEEK 2,4,,Alanine Aminotransferase (U/L),ALT,1,CHEM,19,15,6,32,3.16666666666667,0.59375,2.5,0.46875,,,NA,R2A1HI > 1.5,N,0
CDISCPILOT01,1034,01-701-1034,Xanomeline High Dose,81,Xanomeline High Dose,81,2014-07-01,2014-12-30,77,65-80,2,WHITE,1,F,Y,,Y,Week 2,2,15,2014-07-15,WEEK 2,4,,Aspartate Aminotransferase (U/L),AST,2,CHEM,23,23,9,34,2.55555555555556,0.676470588235294,2.55555555555556,0.676470588235294,,,NA,R2A1HI > 1.5,N,0
CDISCPILOT01,1034,01-701-1034,Xanomeline High Dose,81,Xanomeline High Dose,81,2014-07-01,2014-12-30,77,65-80,2,WHITE,1,F,Y,,Y,Week 2,2,15,2014-07-15,WEEK 2,4,,Bilirubin (umol/L),BILI,3,CHEM,6.84,10.26,3,21,2.28,0.325714285714286,3.42,0.488571428571429,,,NA,R2A1HI > 1.5,N,0
CDISCPILOT01,1034,01-701-1034,Xanomeline High Dose,81,Xanomeline High Dose,81,2014-07-01,2014-12-30,77,65-80,2,WHITE,1,F,Y,,Y,Week 2,2,NA,NA,,NA,DERIVED,Bilirubin 1.5 x ULN,BILIHY,4,HYLAW,0,0,NA,NA,NA,NA,NA,NA,,Normal to Normal,1,,,NA
CDISCPILOT01,1034,01-701-1034,Xanomeline High Dose,81,Xanomeline High Dose,81,2014-07-01,2014-12-30,77,65-80,2,WHITE,1,F,Y,,Y,Week 2,2,NA,NA,,NA,DERIVED,Transaminase 1.5 x ULN,TRANSHY,5,HYLAW,0,0,NA,NA,NA,NA,NA,NA,,Normal to Normal,1,,,NA
CDISCPILOT01,1034,01-701-1034,Xanomeline High Dose,81,Xanomeline High Dose,81,2014-07-01,2014-12-30,77,65-80,2,WHITE,1,F,Y,,Y,Week 2,2,NA,NA,,NA,DERIVED,Total Bili 1.5 x ULN and Transaminase 1.5 x ULN,HYLAW,6,HYLAW,0,0,NA,NA,NA,NA,NA,NA,,Normal to Normal,1,,,NA
CDISCPILOT01,1034,01-701-1034,Xanomeline High Dose,81,Xanomeline High Dose,81,2014-07-01,2014-12-30,77,65-80,2,WHITE,1,F,Y,,Y,Week 4,4,29,2014-07-29,WEEK 4,5,,Alanine Aminotransferase (U/L),ALT,1,CHEM,21,15,6,32,3.5,0.65625,2.5,0.46875,,,NA,R2A1HI > 1.5,N,0
CDISCPILOT01,1034,01-701-1034,Xanomeline High Dose,81,Xanomeline High Dose,81,2014-07-01,2014-12-30,77,65-80,2,WHITE,1,F,Y,,Y,Week 4,4,29,2014-07-29,WEEK 4,5,,Aspartate Aminotransferase (U/L),AST,2,CHEM,25,23,9,34,2.77777777777778,0.735294117647059,2.55555555555556,0.676470588235294,,,NA,R2A1HI > 1.5,N,0
CDISCPILOT01,1034,01-701-1034,Xanomeline High Dose,81,Xanomeline High Dose,81,2014-07-01,2014-12-30,77,65-80,2,WHITE,1,F,Y,,Y,Week 4,4,29,2014-07-29,WEEK 4,5,,Bilirubin (umol/L),BILI,3,CHEM,6.84,10.26,3,21,2.28,0.325714285714286,3.42,0.488571428571429,,,NA,R2A1HI > 1.5,N,0
CDISCPILOT01,1034,01-701-1034,Xanomeline High Dose,81,Xanomeline High Dose,81,2014-07-01,2014-12-30,77,65-80,2,WHITE,1,F,Y,,Y,Week 4,4,NA,NA,,NA,DERIVED,Bilirubin 1.5 x ULN,BILIHY,4,HYLAW,0,0,NA,NA,NA,NA,NA,NA,,Normal to Normal,1,,,NA
CDISCPILOT01,1034,01-701-1034,Xanomeline High Dose,81,Xanomeline High Dose,81,2014-07-01,2014-12-30,77,65-80,2,WHITE,1,F,Y,,Y,Week 4,4,NA,NA,,NA,DERIVED,Transaminase 1.5 x ULN,TRANSHY,5,HYLAW,0,0,NA,NA,NA,NA,NA,NA,,Normal to Normal,1,,,NA
CDISCPILOT01,1034,01-701-1034,Xanomeline High Dose,81,Xanomeline High Dose,81,2014-07-01,2014-12-30,77,65-80,2,WHITE,1,F,Y,,Y,Week 4,4,NA,NA,,NA,DERIVED,Total Bili 1.5 x ULN and Transaminase 1.5 x ULN,HYLAW,6,HYLAW,0,0,NA,NA,NA,NA,NA,NA,,Normal to Normal,1,,,NA
CDISCPILOT01,1034,01-701-1034,Xanomeline High Dose,81,Xanomeline High Dose,81,2014-07-01,2014-12-30,77,65-80,2,WHITE,1,F,Y,,Y,Week 6,6,42,2014-08-11,WEEK 6,7,,Alanine Aminotransferase (U/L),ALT,1,CHEM,15,15,6,32,2.5,0.46875,2.5,0.46875,,,NA,R2A1HI > 1.5,N,0
CDISCPILOT01,1034,01-701-1034,Xanomeline High Dose,81,Xanomeline High Dose,81,2014-07-01,2014-12-30,77,65-80,2,WHITE,1,F,Y,,Y,Week 6,6,42,2014-08-11,WEEK 6,7,,Aspartate Aminotransferase (U/L),AST,2,CHEM,19,23,9,34,2.11111111111111,0.558823529411765,2.55555555555556,0.676470588235294,,,NA,R2A1HI > 1.5,N,0
CDISCPILOT01,1034,01-701-1034,Xanomeline High Dose,81,Xanomeline High Dose,81,2014-07-01,2014-12-30,77,65-80,2,WHITE,1,F,Y,,Y,Week 6,6,42,2014-08-11,WEEK 6,7,,Bilirubin (umol/L),BILI,3,CHEM,6.84,10.26,3,21,2.28,0.325714285714286,3.42,0.488571428571429,,,NA,R2A1HI > 1.5,N,0
CDISCPILOT01,1034,01-701-1034,Xanomeline High Dose,81,Xanomeline High Dose,81,2014-07-01,2014-12-30,77,65-80,2,WHITE,1,F,Y,,Y,Week 6,6,NA,NA,,NA,DERIVED,Bilirubin 1.5 x ULN,BILIHY,4,HYLAW,0,0,NA,NA,NA,NA,NA,NA,,Normal to Normal,1,,,NA
CDISCPILOT01,1034,01-701-1034,Xanomeline High Dose,81,Xanomeline High Dose,81,2014-07-01,2014-12-30,77,65-80,2,WHITE,1,F,Y,,Y,Week 6,6,NA,NA,,NA,DERIVED,Transaminase 1.5 x ULN,TRANSHY,5,HYLAW,0,0,NA,NA,NA,NA,NA,NA,,Normal to Normal,1,,,NA
CDISCPILOT01,1034,01-701-1034,Xanomeline High Dose,81,Xanomeline High Dose,81,2014-07-01,2014-12-30,77,65-80,2,WHITE,1,F,Y,,Y,Week 6,6,NA,NA,,NA,DERIVED,Total Bili 1.5 x ULN and Transaminase 1.5 x ULN,HYLAW,6,HYLAW,0,0,NA,NA,NA,NA,NA,NA,,Normal to Normal,1,,,NA
CDISCPILOT01,1034,01-701-1034,Xanomeline High Dose,81,Xanomeline High Dose,81,2014-07-01,2014-12-30,77,65-80,2,WHITE,1,F,Y,,Y,Week 8,8,57,2014-08-26,WEEK 8,8,,Alanine Aminotransferase (U/L),ALT,1,CHEM,24,15,6,32,4,0.75,2.5,0.46875,,,NA,R2A1HI > 1.5,N,0
CDISCPILOT01,1034,01-701-1034,Xanomeline High Dose,81,Xanomeline High Dose,81,2014-07-01,2014-12-30,77,65-80,2,WHITE,1,F,Y,,Y,Week 8,8,57,2014-08-26,WEEK 8,8,,Aspartate Aminotransferase (U/L),AST,2,CHEM,26,23,9,34,2.88888888888889,0.764705882352941,2.55555555555556,0.676470588235294,,,NA,R2A1HI > 1.5,N,0
CDISCPILOT01,1034,01-701-1034,Xanomeline High Dose,81,Xanomeline High Dose,81,2014-07-01,2014-12-30,77,65-80,2,WHITE,1,F,Y,,Y,Week 8,8,57,2014-08-26,WEEK 8,8,,Bilirubin (umol/L),BILI,3,CHEM,8.55,10.26,3,21,2.85,0.407142857142857,3.42,0.488571428571429,,,NA,R2A1HI > 1.5,N,0
CDISCPILOT01,1034,01-701-1034,Xanomeline High Dose,81,Xanomeline High Dose,81,2014-07-01,2014-12-30,77,65-80,2,WHITE,1,F,Y,,Y,Week 8,8,NA,NA,,NA,DERIVED,Bilirubin 1.5 x ULN,BILIHY,4,HYLAW,0,0,NA,NA,NA,NA,NA,NA,,Normal to Normal,1,,,NA
CDISCPILOT01,1034,01-701-1034,Xanomeline High Dose,81,Xanomeline High Dose,81,2014-07-01,2014-12-30,77,65-80,2,WHITE,1,F,Y,,Y,Week 8,8,NA,NA,,NA,DERIVED,Transaminase 1.5 x ULN,TRANSHY,5,HYLAW,0,0,NA,NA,NA,NA,NA,NA,,Normal to Normal,1,,,NA
CDISCPILOT01,1034,01-701-1034,Xanomeline High Dose,81,Xanomeline High Dose,81,2014-07-01,2014-12-30,77,65-80,2,WHITE,1,F,Y,,Y,Week 8,8,NA,NA,,NA,DERIVED,Total Bili 1.5 x ULN and Transaminase 1.5 x ULN,HYLAW,6,HYLAW,0,0,NA,NA,NA,NA,NA,NA,,Normal to Normal,1,,,NA
CDISCPILOT01,1034,01-701-1034,Xanomeline High Dose,81,Xanomeline High Dose,81,2014-07-01,2014-12-30,77,65-80,2,WHITE,1,F,Y,,Y,Week 12,12,87,2014-09-25,WEEK 12,9,,Alanine Aminotransferase (U/L),ALT,1,CHEM,20,15,6,32,3.33333333333333,0.625,2.5,0.46875,,,NA,R2A1HI > 1.5,N,0
CDISCPILOT01,1034,01-701-1034,Xanomeline High Dose,81,Xanomeline High Dose,81,2014-07-01,2014-12-30,77,65-80,2,WHITE,1,F,Y,,Y,Week 12,12,87,2014-09-25,WEEK 12,9,,Aspartate Aminotransferase (U/L),AST,2,CHEM,23,23,9,34,2.55555555555556,0.676470588235294,2.55555555555556,0.676470588235294,,,NA,R2A1HI > 1.5,N,0
CDISCPILOT01,1034,01-701-1034,Xanomeline High Dose,81,Xanomeline High Dose,81,2014-07-01,2014-12-30,77,65-80,2,WHITE,1,F,Y,,Y,Week 12,12,87,2014-09-25,WEEK 12,9,,Bilirubin (umol/L),BILI,3,CHEM,8.55,10.26,3,21,2.85,0.407142857142857,3.42,0.488571428571429,,,NA,R2A1HI > 1.5,N,0
CDISCPILOT01,1034,01-701-1034,Xanomeline High Dose,81,Xanomeline High Dose,81,2014-07-01,2014-12-30,77,65-80,2,WHITE,1,F,Y,,Y,Week 12,12,NA,NA,,NA,DERIVED,Bilirubin 1.5 x ULN,BILIHY,4,HYLAW,0,0,NA,NA,NA,NA,NA,NA,,Normal to Normal,1,,,NA
CDISCPILOT01,1034,01-701-1034,Xanomeline High Dose,81,Xanomeline High Dose,81,2014-07-01,2014-12-30,77,65-80,2,WHITE,1,F,Y,,Y,Week 12,12,NA,NA,,NA,DERIVED,Transaminase 1.5 x ULN,TRANSHY,5,HYLAW,0,0,NA,NA,NA,NA,NA,NA,,Normal to Normal,1,,,NA
CDISCPILOT01,1034,01-701-1034,Xanomeline High Dose,81,Xanomeline High Dose,81,2014-07-01,2014-12-30,77,65-80,2,WHITE,1,F,Y,,Y,Week 12,12,NA,NA,,NA,DERIVED,Total Bili 1.5 x ULN and Transaminase 1.5 x ULN,HYLAW,6,HYLAW,0,0,NA,NA,NA,NA,NA,NA,,Normal to Normal,1,,,NA
CDISCPILOT01,1034,01-701-1034,Xanomeline High Dose,81,Xanomeline High Dose,81,2014-07-01,2014-12-30,77,65-80,2,WHITE,1,F,Y,,Y,Week 16,16,113,2014-10-21,WEEK 16,10,,Alanine Aminotransferase (U/L),ALT,1,CHEM,21,15,6,32,3.5,0.65625,2.5,0.46875,,,NA,R2A1HI > 1.5,N,0
CDISCPILOT01,1034,01-701-1034,Xanomeline High Dose,81,Xanomeline High Dose,81,2014-07-01,2014-12-30,77,65-80,2,WHITE,1,F,Y,,Y,Week 16,16,113,2014-10-21,WEEK 16,10,,Aspartate Aminotransferase (U/L),AST,2,CHEM,21,23,9,34,2.33333333333333,0.617647058823529,2.55555555555556,0.676470588235294,,,NA,R2A1HI > 1.5,N,0
CDISCPILOT01,1034,01-701-1034,Xanomeline High Dose,81,Xanomeline High Dose,81,2014-07-01,2014-12-30,77,65-80,2,WHITE,1,F,Y,,Y,Week 16,16,113,2014-10-21,WEEK 16,10,,Bilirubin (umol/L),BILI,3,CHEM,6.84,10.26,3,21,2.28,0.325714285714286,3.42,0.488571428571429,,,NA,R2A1HI > 1.5,N,0
CDISCPILOT01,1034,01-701-1034,Xanomeline High Dose,81,Xanomeline High Dose,81,2014-07-01,2014-12-30,77,65-80,2,WHITE,1,F,Y,,Y,Week 16,16,NA,NA,,NA,DERIVED,Bilirubin 1.5 x ULN,BILIHY,4,HYLAW,0,0,NA,NA,NA,NA,NA,NA,,Normal to Normal,1,,,NA
CDISCPILOT01,1034,01-701-1034,Xanomeline High Dose,81,Xanomeline High Dose,81,2014-07-01,2014-12-30,77,65-80,2,WHITE,1,F,Y,,Y,Week 16,16,NA,NA,,NA,DERIVED,Transaminase 1.5 x ULN,TRANSHY,5,HYLAW,0,0,NA,NA,NA,NA,NA,NA,,Normal to Normal,1,,,NA
CDISCPILOT01,1034,01-701-1034,Xanomeline High Dose,81,Xanomeline High Dose,81,2014-07-01,2014-12-30,77,65-80,2,WHITE,1,F,Y,,Y,Week 16,16,NA,NA,,NA,DERIVED,Total Bili 1.5 x ULN and Transaminase 1.5 x ULN,HYLAW,6,HYLAW,0,0,NA,NA,NA,NA,NA,NA,,Normal to Normal,1,,,NA
CDISCPILOT01,1034,01-701-1034,Xanomeline High Dose,81,Xanomeline High Dose,81,2014-07-01,2014-12-30,77,65-80,2,WHITE,1,F,Y,,Y,Week 20,20,141,2014-11-18,WEEK 20,11,,Alanine Aminotransferase (U/L),ALT,1,CHEM,23,15,6,32,3.83333333333333,0.71875,2.5,0.46875,,,NA,R2A1HI > 1.5,N,0
CDISCPILOT01,1034,01-701-1034,Xanomeline High Dose,81,Xanomeline High Dose,81,2014-07-01,2014-12-30,77,65-80,2,WHITE,1,F,Y,,Y,Week 20,20,141,2014-11-18,WEEK 20,11,,Aspartate Aminotransferase (U/L),AST,2,CHEM,22,23,9,34,2.44444444444444,0.647058823529412,2.55555555555556,0.676470588235294,,,NA,R2A1HI > 1.5,N,0
CDISCPILOT01,1034,01-701-1034,Xanomeline High Dose,81,Xanomeline High Dose,81,2014-07-01,2014-12-30,77,65-80,2,WHITE,1,F,Y,,Y,Week 20,20,141,2014-11-18,WEEK 20,11,,Bilirubin (umol/L),BILI,3,CHEM,5.13,10.26,3,21,1.71,0.244285714285714,3.42,0.488571428571429,,,NA,R2A1HI > 1.5,N,0
CDISCPILOT01,1034,01-701-1034,Xanomeline High Dose,81,Xanomeline High Dose,81,2014-07-01,2014-12-30,77,65-80,2,WHITE,1,F,Y,,Y,Week 20,20,NA,NA,,NA,DERIVED,Bilirubin 1.5 x ULN,BILIHY,4,HYLAW,0,0,NA,NA,NA,NA,NA,NA,,Normal to Normal,1,,,NA
CDISCPILOT01,1034,01-701-1034,Xanomeline High Dose,81,Xanomeline High Dose,81,2014-07-01,2014-12-30,77,65-80,2,WHITE,1,F,Y,,Y,Week 20,20,NA,NA,,NA,DERIVED,Transaminase 1.5 x ULN,TRANSHY,5,HYLAW,0,0,NA,NA,NA,NA,NA,NA,,Normal to Normal,1,,,NA
CDISCPILOT01,1034,01-701-1034,Xanomeline High Dose,81,Xanomeline High Dose,81,2014-07-01,2014-12-30,77,65-80,2,WHITE,1,F,Y,,Y,Week 20,20,NA,NA,,NA,DERIVED,Total Bili 1.5 x ULN and Transaminase 1.5 x ULN,HYLAW,6,HYLAW,0,0,NA,NA,NA,NA,NA,NA,,Normal to Normal,1,,,NA
CDISCPILOT01,1034,01-701-1034,Xanomeline High Dose,81,Xanomeline High Dose,81,2014-07-01,2014-12-30,77,65-80,2,WHITE,1,F,Y,,Y,Week 24,24,170,2014-12-17,WEEK 24,12,,Alanine Aminotransferase (U/L),ALT,1,CHEM,15,15,6,32,2.5,0.46875,2.5,0.46875,,,NA,R2A1HI > 1.5,N,0
CDISCPILOT01,1034,01-701-1034,Xanomeline High Dose,81,Xanomeline High Dose,81,2014-07-01,2014-12-30,77,65-80,2,WHITE,1,F,Y,,Y,Week 24,24,170,2014-12-17,WEEK 24,12,,Aspartate Aminotransferase (U/L),AST,2,CHEM,17,23,9,34,1.88888888888889,0.5,2.55555555555556,0.676470588235294,,,NA,R2A1HI > 1.5,N,0
CDISCPILOT01,1034,01-701-1034,Xanomeline High Dose,81,Xanomeline High Dose,81,2014-07-01,2014-12-30,77,65-80,2,WHITE,1,F,Y,,Y,Week 24,24,170,2014-12-17,WEEK 24,12,,Bilirubin (umol/L),BILI,3,CHEM,6.84,10.26,3,21,2.28,0.325714285714286,3.42,0.488571428571429,,,NA,R2A1HI > 1.5,N,0
CDISCPILOT01,1034,01-701-1034,Xanomeline High Dose,81,Xanomeline High Dose,81,2014-07-01,2014-12-30,77,65-80,2,WHITE,1,F,Y,,Y,Week 24,24,NA,NA,,NA,DERIVED,Bilirubin 1.5 x ULN,BILIHY,4,HYLAW,0,0,NA,NA,NA,NA,NA,NA,,Normal to Normal,1,,,NA
CDISCPILOT01,1034,01-701-1034,Xanomeline High Dose,81,Xanomeline High Dose,81,2014-07-01,2014-12-30,77,65-80,2,WHITE,1,F,Y,,Y,Week 24,24,NA,NA,,NA,DERIVED,Transaminase 1.5 x ULN,TRANSHY,5,HYLAW,0,0,NA,NA,NA,NA,NA,NA,,Normal to Normal,1,,,NA
CDISCPILOT01,1034,01-701-1034,Xanomeline High Dose,81,Xanomeline High Dose,81,2014-07-01,2014-12-30,77,65-80,2,WHITE,1,F,Y,,Y,Week 24,24,NA,NA,,NA,DERIVED,Total Bili 1.5 x ULN and Transaminase 1.5 x ULN,HYLAW,6,HYLAW,0,0,NA,NA,NA,NA,NA,NA,,Normal to Normal,1,,,NA
CDISCPILOT01,1047,01-701-1047,Placebo,0,Placebo,0,2013-02-12,2013-03-09,85,>80,3,WHITE,1,F,N,Y,Y,Baseline,0,-21,2013-01-22,SCREENING 1,1,,Alanine Aminotransferase (U/L),ALT,1,CHEM,22,22,6,32,3.66666666666667,0.6875,3.66666666666667,0.6875,Y,,NA,R2A1HI > 1.5,N,0
CDISCPILOT01,1047,01-701-1047,Placebo,0,Placebo,0,2013-02-12,2013-03-09,85,>80,3,WHITE,1,F,N,Y,Y,Baseline,0,-21,2013-01-22,SCREENING 1,1,,Aspartate Aminotransferase (U/L),AST,2,CHEM,25,25,9,34,2.77777777777778,0.735294117647059,2.77777777777778,0.735294117647059,Y,,NA,R2A1HI > 1.5,N,0
CDISCPILOT01,1047,01-701-1047,Placebo,0,Placebo,0,2013-02-12,2013-03-09,85,>80,3,WHITE,1,F,N,Y,Y,Baseline,0,-21,2013-01-22,SCREENING 1,1,,Bilirubin (umol/L),BILI,3,CHEM,6.84,6.84,3,21,2.28,0.325714285714286,2.28,0.325714285714286,Y,,NA,R2A1HI > 1.5,N,0
CDISCPILOT01,1047,01-701-1047,Placebo,0,Placebo,0,2013-02-12,2013-03-09,85,>80,3,WHITE,1,F,N,Y,Y,Baseline,0,NA,NA,,NA,DERIVED,Bilirubin 1.5 x ULN,BILIHY,4,HYLAW,0,0,NA,NA,NA,NA,NA,NA,Y,Normal to Normal,1,,,NA
CDISCPILOT01,1047,01-701-1047,Placebo,0,Placebo,0,2013-02-12,2013-03-09,85,>80,3,WHITE,1,F,N,Y,Y,Baseline,0,NA,NA,,NA,DERIVED,Transaminase 1.5 x ULN,TRANSHY,5,HYLAW,0,0,NA,NA,NA,NA,NA,NA,Y,Normal to Normal,1,,,NA
CDISCPILOT01,1047,01-701-1047,Placebo,0,Placebo,0,2013-02-12,2013-03-09,85,>80,3,WHITE,1,F,N,Y,Y,Baseline,0,NA,NA,,NA,DERIVED,Total Bili 1.5 x ULN and Transaminase 1.5 x ULN,HYLAW,6,HYLAW,0,0,NA,NA,NA,NA,NA,NA,Y,Normal to Normal,1,,,NA
CDISCPILOT01,1047,01-701-1047,Placebo,0,Placebo,0,2013-02-12,2013-03-09,85,>80,3,WHITE,1,F,N,Y,Y,Week 2,2,14,2013-02-25,WEEK 2,4,,Alanine Aminotransferase (U/L),ALT,1,CHEM,16,22,6,32,2.66666666666667,0.5,3.66666666666667,0.6875,,,NA,R2A1HI > 1.5,N,0
CDISCPILOT01,1047,01-701-1047,Placebo,0,Placebo,0,2013-02-12,2013-03-09,85,>80,3,WHITE,1,F,N,Y,Y,Week 2,2,14,2013-02-25,WEEK 2,4,,Aspartate Aminotransferase (U/L),AST,2,CHEM,21,25,9,34,2.33333333333333,0.617647058823529,2.77777777777778,0.735294117647059,,,NA,R2A1HI > 1.5,N,0
CDISCPILOT01,1047,01-701-1047,Placebo,0,Placebo,0,2013-02-12,2013-03-09,85,>80,3,WHITE,1,F,N,Y,Y,Week 2,2,14,2013-02-25,WEEK 2,4,,Bilirubin (umol/L),BILI,3,CHEM,8.55,6.84,3,21,2.85,0.407142857142857,2.28,0.325714285714286,,,NA,R2A1HI > 1.5,N,0
CDISCPILOT01,1047,01-701-1047,Placebo,0,Placebo,0,2013-02-12,2013-03-09,85,>80,3,WHITE,1,F,N,Y,Y,Week 2,2,NA,NA,,NA,DERIVED,Bilirubin 1.5 x ULN,BILIHY,4,HYLAW,0,0,NA,NA,NA,NA,NA,NA,,Normal to Normal,1,,,NA
CDISCPILOT01,1047,01-701-1047,Placebo,0,Placebo,0,2013-02-12,2013-03-09,85,>80,3,WHITE,1,F,N,Y,Y,Week 2,2,NA,NA,,NA,DERIVED,Transaminase 1.5 x ULN,TRANSHY,5,HYLAW,0,0,NA,NA,NA,NA,NA,NA,,Normal to Normal,1,,,NA
CDISCPILOT01,1047,01-701-1047,Placebo,0,Placebo,0,2013-02-12,2013-03-09,85,>80,3,WHITE,1,F,N,Y,Y,Week 2,2,NA,NA,,NA,DERIVED,Total Bili 1.5 x ULN and Transaminase 1.5 x ULN,HYLAW,6,HYLAW,0,0,NA,NA,NA,NA,NA,NA,,Normal to Normal,1,,,NA
CDISCPILOT01,1047,01-701-1047,Placebo,0,Placebo,0,2013-02-12,2013-03-09,85,>80,3,WHITE,1,F,N,Y,Y,Week 4,4,27,2013-03-10,WEEK 4,5,,Alanine Aminotransferase (U/L),ALT,1,CHEM,20,22,6,32,3.33333333333333,0.625,3.66666666666667,0.6875,,,NA,R2A1HI > 1.5,N,0
CDISCPILOT01,1047,01-701-1047,Placebo,0,Placebo,0,2013-02-12,2013-03-09,85,>80,3,WHITE,1,F,N,Y,Y,Week 4,4,27,2013-03-10,WEEK 4,5,,Aspartate Aminotransferase (U/L),AST,2,CHEM,24,25,9,34,2.66666666666667,0.705882352941177,2.77777777777778,0.735294117647059,,,NA,R2A1HI > 1.5,N,0
CDISCPILOT01,1047,01-701-1047,Placebo,0,Placebo,0,2013-02-12,2013-03-09,85,>80,3,WHITE,1,F,N,Y,Y,Week 4,4,27,2013-03-10,WEEK 4,5,,Bilirubin (umol/L),BILI,3,CHEM,6.84,6.84,3,21,2.28,0.325714285714286,2.28,0.325714285714286,,,NA,R2A1HI > 1.5,N,0
CDISCPILOT01,1047,01-701-1047,Placebo,0,Placebo,0,2013-02-12,2013-03-09,85,>80,3,WHITE,1,F,N,Y,Y,Week 4,4,NA,NA,,NA,DERIVED,Bilirubin 1.5 x ULN,BILIHY,4,HYLAW,0,0,NA,NA,NA,NA,NA,NA,,Normal to Normal,1,,,NA
CDISCPILOT01,1047,01-701-1047,Placebo,0,Placebo,0,2013-02-12,2013-03-09,85,>80,3,WHITE,1,F,N,Y,Y,Week 4,4,NA,NA,,NA,DERIVED,Transaminase 1.5 x ULN,TRANSHY,5,HYLAW,0,0,NA,NA,NA,NA,NA,NA,,Normal to Normal,1,,,NA
CDISCPILOT01,1047,01-701-1047,Placebo,0,Placebo,0,2013-02-12,2013-03-09,85,>80,3,WHITE,1,F,N,Y,Y,Week 4,4,NA,NA,,NA,DERIVED,Total Bili 1.5 x ULN and Transaminase 1.5 x ULN,HYLAW,6,HYLAW,0,0,NA,NA,NA,NA,NA,NA,,Normal to Normal,1,,,NA
CDISCPILOT01,1097,01-701-1097,Xanomeline Low Dose,54,Xanomeline Low Dose,54,2014-01-01,2014-07-09,68,65-80,2,WHITE,1,M,Y,,Y,Baseline,0,-9,2013-12-23,SCREENING 1,1,,Alanine Aminotransferase (U/L),ALT,1,CHEM,16,16,6,43,2.66666666666667,0.372093023255814,2.66666666666667,0.372093023255814,Y,,NA,R2A1HI > 1.5,N,0
CDISCPILOT01,1097,01-701-1097,Xanomeline Low Dose,54,Xanomeline Low Dose,54,2014-01-01,2014-07-09,68,65-80,2,WHITE,1,M,Y,,Y,Baseline,0,-9,2013-12-23,SCREENING 1,1,,Aspartate Aminotransferase (U/L),AST,2,CHEM,19,19,11,36,1.72727272727273,0.527777777777778,1.72727272727273,0.527777777777778,Y,,NA,R2A1HI > 1.5,N,0
CDISCPILOT01,1097,01-701-1097,Xanomeline Low Dose,54,Xanomeline Low Dose,54,2014-01-01,2014-07-09,68,65-80,2,WHITE,1,M,Y,,Y,Baseline,0,-9,2013-12-23,SCREENING 1,1,,Bilirubin (umol/L),BILI,3,CHEM,6.84,6.84,3,21,2.28,0.325714285714286,2.28,0.325714285714286,Y,,NA,R2A1HI > 1.5,N,0
CDISCPILOT01,1097,01-701-1097,Xanomeline Low Dose,54,Xanomeline Low Dose,54,2014-01-01,2014-07-09,68,65-80,2,WHITE,1,M,Y,,Y,Baseline,0,NA,NA,,NA,DERIVED,Bilirubin 1.5 x ULN,BILIHY,4,HYLAW,0,0,NA,NA,NA,NA,NA,NA,Y,Normal to Normal,1,,,NA
CDISCPILOT01,1097,01-701-1097,Xanomeline Low Dose,54,Xanomeline Low Dose,54,2014-01-01,2014-07-09,68,65-80,2,WHITE,1,M,Y,,Y,Baseline,0,NA,NA,,NA,DERIVED,Transaminase 1.5 x ULN,TRANSHY,5,HYLAW,0,0,NA,NA,NA,NA,NA,NA,Y,Normal to Normal,1,,,NA
CDISCPILOT01,1097,01-701-1097,Xanomeline Low Dose,54,Xanomeline Low Dose,54,2014-01-01,2014-07-09,68,65-80,2,WHITE,1,M,Y,,Y,Baseline,0,NA,NA,,NA,DERIVED,Total Bili 1.5 x ULN and Transaminase 1.5 x ULN,HYLAW,6,HYLAW,0,0,NA,NA,NA,NA,NA,NA,Y,Normal to Normal,1,,,NA
CDISCPILOT01,1097,01-701-1097,Xanomeline Low Dose,54,Xanomeline Low Dose,54,2014-01-01,2014-07-09,68,65-80,2,WHITE,1,M,Y,,Y,Week 2,2,15,2014-01-15,WEEK 2,4,,Alanine Aminotransferase (U/L),ALT,1,CHEM,24,16,6,43,4,0.558139534883721,2.66666666666667,0.372093023255814,,,NA,R2A1HI > 1.5,N,0
CDISCPILOT01,1097,01-701-1097,Xanomeline Low Dose,54,Xanomeline Low Dose,54,2014-01-01,2014-07-09,68,65-80,2,WHITE,1,M,Y,,Y,Week 2,2,15,2014-01-15,WEEK 2,4,,Aspartate Aminotransferase (U/L),AST,2,CHEM,21,19,11,36,1.90909090909091,0.583333333333333,1.72727272727273,0.527777777777778,,,NA,R2A1HI > 1.5,N,0
CDISCPILOT01,1097,01-701-1097,Xanomeline Low Dose,54,Xanomeline Low Dose,54,2014-01-01,2014-07-09,68,65-80,2,WHITE,1,M,Y,,Y,Week 2,2,15,2014-01-15,WEEK 2,4,,Bilirubin (umol/L),BILI,3,CHEM,8.55,6.84,3,21,2.85,0.407142857142857,2.28,0.325714285714286,,,NA,R2A1HI > 1.5,N,0
CDISCPILOT01,1097,01-701-1097,Xanomeline Low Dose,54,Xanomeline Low Dose,54,2014-01-01,2014-07-09,68,65-80,2,WHITE,1,M,Y,,Y,Week 2,2,NA,NA,,NA,DERIVED,Bilirubin 1.5 x ULN,BILIHY,4,HYLAW,0,0,NA,NA,NA,NA,NA,NA,,Normal to Normal,1,,,NA
CDISCPILOT01,1097,01-701-1097,Xanomeline Low Dose,54,Xanomeline Low Dose,54,2014-01-01,2014-07-09,68,65-80,2,WHITE,1,M,Y,,Y,Week 2,2,NA,NA,,NA,DERIVED,Transaminase 1.5 x ULN,TRANSHY,5,HYLAW,0,0,NA,NA,NA,NA,NA,NA,,Normal to Normal,1,,,NA
CDISCPILOT01,1097,01-701-1097,Xanomeline Low Dose,54,Xanomeline Low Dose,54,2014-01-01,2014-07-09,68,65-80,2,WHITE,1,M,Y,,Y,Week 2,2,NA,NA,,NA,DERIVED,Total Bili 1.5 x ULN and Transaminase 1.5 x ULN,HYLAW,6,HYLAW,0,0,NA,NA,NA,NA,NA,NA,,Normal to Normal,1,,,NA
CDISCPILOT01,1097,01-701-1097,Xanomeline Low Dose,54,Xanomeline Low Dose,54,2014-01-01,2014-07-09,68,65-80,2,WHITE,1,M,Y,,Y,Week 4,4,29,2014-01-29,WEEK 4,5,,Alanine Aminotransferase (U/L),ALT,1,CHEM,17,16,6,43,2.83333333333333,0.395348837209302,2.66666666666667,0.372093023255814,,,NA,R2A1HI > 1.5,N,0
CDISCPILOT01,1097,01-701-1097,Xanomeline Low Dose,54,Xanomeline Low Dose,54,2014-01-01,2014-07-09,68,65-80,2,WHITE,1,M,Y,,Y,Week 4,4,29,2014-01-29,WEEK 4,5,,Aspartate Aminotransferase (U/L),AST,2,CHEM,16,19,11,36,1.45454545454545,0.444444444444444,1.72727272727273,0.527777777777778,,,NA,R2A1HI > 1.5,N,0
CDISCPILOT01,1097,01-701-1097,Xanomeline Low Dose,54,Xanomeline Low Dose,54,2014-01-01,2014-07-09,68,65-80,2,WHITE,1,M,Y,,Y,Week 4,4,29,2014-01-29,WEEK 4,5,,Bilirubin (umol/L),BILI,3,CHEM,10.26,6.84,3,21,3.42,0.488571428571429,2.28,0.325714285714286,,,NA,R2A1HI > 1.5,N,0
CDISCPILOT01,1097,01-701-1097,Xanomeline Low Dose,54,Xanomeline Low Dose,54,2014-01-01,2014-07-09,68,65-80,2,WHITE,1,M,Y,,Y,Week 4,4,NA,NA,,NA,DERIVED,Bilirubin 1.5 x ULN,BILIHY,4,HYLAW,0,0,NA,NA,NA,NA,NA,NA,,Normal to Normal,1,,,NA
CDISCPILOT01,1097,01-701-1097,Xanomeline Low Dose,54,Xanomeline Low Dose,54,2014-01-01,2014-07-09,68,65-80,2,WHITE,1,M,Y,,Y,Week 4,4,NA,NA,,NA,DERIVED,Transaminase 1.5 x ULN,TRANSHY,5,HYLAW,0,0,NA,NA,NA,NA,NA,NA,,Normal to Normal,1,,,NA
CDISCPILOT01,1097,01-701-1097,Xanomeline Low Dose,54,Xanomeline Low Dose,54,2014-01-01,2014-07-09,68,65-80,2,WHITE,1,M,Y,,Y,Week 4,4,NA,NA,,NA,DERIVED,Total Bili 1.5 x ULN and Transaminase 1.5 x ULN,HYLAW,6,HYLAW,0,0,NA,NA,NA,NA,NA,NA,,Normal to Normal,1,,,NA
CDISCPILOT01,1097,01-701-1097,Xanomeline Low Dose,54,Xanomeline Low Dose,54,2014-01-01,2014-07-09,68,65-80,2,WHITE,1,M,Y,,Y,Week 6,6,42,2014-02-11,WEEK 6,7,,Alanine Aminotransferase (U/L),ALT,1,CHEM,14,16,6,43,2.33333333333333,0.325581395348837,2.66666666666667,0.372093023255814,,,NA,R2A1HI > 1.5,N,0
CDISCPILOT01,1097,01-701-1097,Xanomeline Low Dose,54,Xanomeline Low Dose,54,2014-01-01,2014-07-09,68,65-80,2,WHITE,1,M,Y,,Y,Week 6,6,42,2014-02-11,WEEK 6,7,,Aspartate Aminotransferase (U/L),AST,2,CHEM,19,19,11,36,1.72727272727273,0.527777777777778,1.72727272727273,0.527777777777778,,,NA,R2A1HI > 1.5,N,0
CDISCPILOT01,1097,01-701-1097,Xanomeline Low Dose,54,Xanomeline Low Dose,54,2014-01-01,2014-07-09,68,65-80,2,WHITE,1,M,Y,,Y,Week 6,6,42,2014-02-11,WEEK 6,7,,Bilirubin (umol/L),BILI,3,CHEM,8.55,6.84,3,21,2.85,0.407142857142857,2.28,0.325714285714286,,,NA,R2A1HI > 1.5,N,0
CDISCPILOT01,1097,01-701-1097,Xanomeline Low Dose,54,Xanomeline Low Dose,54,2014-01-01,2014-07-09,68,65-80,2,WHITE,1,M,Y,,Y,Week 6,6,NA,NA,,NA,DERIVED,Bilirubin 1.5 x ULN,BILIHY,4,HYLAW,0,0,NA,NA,NA,NA,NA,NA,,Normal to Normal,1,,,NA
CDISCPILOT01,1097,01-701-1097,Xanomeline Low Dose,54,Xanomeline Low Dose,54,2014-01-01,2014-07-09,68,65-80,2,WHITE,1,M,Y,,Y,Week 6,6,NA,NA,,NA,DERIVED,Transaminase 1.5 x ULN,TRANSHY,5,HYLAW,0,0,NA,NA,NA,NA,NA,NA,,Normal to Normal,1,,,NA
CDISCPILOT01,1097,01-701-1097,Xanomeline Low Dose,54,Xanomeline Low Dose,54,2014-01-01,2014-07-09,68,65-80,2,WHITE,1,M,Y,,Y,Week 6,6,NA,NA,,NA,DERIVED,Total Bili 1.5 x ULN and Transaminase 1.5 x ULN,HYLAW,6,HYLAW,0,0,NA,NA,NA,NA,NA,NA,,Normal to Normal,1,,,NA
CDISCPILOT01,1097,01-701-1097,Xanomeline Low Dose,54,Xanomeline Low Dose,54,2014-01-01,2014-07-09,68,65-80,2,WHITE,1,M,Y,,Y,Week 8,8,57,2014-02-26,WEEK 8,8,,Alanine Aminotransferase (U/L),ALT,1,CHEM,18,16,6,43,3,0.418604651162791,2.66666666666667,0.372093023255814,,,NA,R2A1HI > 1.5,N,0
CDISCPILOT01,1097,01-701-1097,Xanomeline Low Dose,54,Xanomeline Low Dose,54,2014-01-01,2014-07-09,68,65-80,2,WHITE,1,M,Y,,Y,Week 8,8,57,2014-02-26,WEEK 8,8,,Aspartate Aminotransferase (U/L),AST,2,CHEM,18,19,11,36,1.63636363636364,0.5,1.72727272727273,0.527777777777778,,,NA,R2A1HI > 1.5,N,0
CDISCPILOT01,1097,01-701-1097,Xanomeline Low Dose,54,Xanomeline Low Dose,54,2014-01-01,2014-07-09,68,65-80,2,WHITE,1,M,Y,,Y,Week 8,8,57,2014-02-26,WEEK 8,8,,Bilirubin (umol/L),BILI,3,CHEM,8.55,6.84,3,21,2.85,0.407142857142857,2.28,0.325714285714286,,,NA,R2A1HI > 1.5,N,0
CDISCPILOT01,1097,01-701-1097,Xanomeline Low Dose,54,Xanomeline Low Dose,54,2014-01-01,2014-07-09,68,65-80,2,WHITE,1,M,Y,,Y,Week 8,8,NA,NA,,NA,DERIVED,Bilirubin 1.5 x ULN,BILIHY,4,HYLAW,0,0,NA,NA,NA,NA,NA,NA,,Normal to Normal,1,,,NA
CDISCPILOT01,1097,01-701-1097,Xanomeline Low Dose,54,Xanomeline Low Dose,54,2014-01-01,2014-07-09,68,65-80,2,WHITE,1,M,Y,,Y,Week 8,8,NA,NA,,NA,DERIVED,Transaminase 1.5 x ULN,TRANSHY,5,HYLAW,0,0,NA,NA,NA,NA,NA,NA,,Normal to Normal,1,,,NA
CDISCPILOT01,1097,01-701-1097,Xanomeline Low Dose,54,Xanomeline Low Dose,54,2014-01-01,2014-07-09,68,65-80,2,WHITE,1,M,Y,,Y,Week 8,8,NA,NA,,NA,DERIVED,Total Bili 1.5 x ULN and Transaminase 1.5 x ULN,HYLAW,6,HYLAW,0,0,NA,NA,NA,NA,NA,NA,,Normal to Normal,1,,,NA
CDISCPILOT01,1097,01-701-1097,Xanomeline Low Dose,54,Xanomeline Low Dose,54,2014-01-01,2014-07-09,68,65-80,2,WHITE,1,M,Y,,Y,Week 12,12,85,2014-03-26,WEEK 12,9,,Alanine Aminotransferase (U/L),ALT,1,CHEM,14,16,6,43,2.33333333333333,0.325581395348837,2.66666666666667,0.372093023255814,,,NA,R2A1HI > 1.5,N,0
CDISCPILOT01,1097,01-701-1097,Xanomeline Low Dose,54,Xanomeline Low Dose,54,2014-01-01,2014-07-09,68,65-80,2,WHITE,1,M,Y,,Y,Week 12,12,85,2014-03-26,WEEK 12,9,,Aspartate Aminotransferase (U/L),AST,2,CHEM,17,19,11,36,1.54545454545455,0.472222222222222,1.72727272727273,0.527777777777778,,,NA,R2A1HI > 1.5,N,0
CDISCPILOT01,1097,01-701-1097,Xanomeline Low Dose,54,Xanomeline Low Dose,54,2014-01-01,2014-07-09,68,65-80,2,WHITE,1,M,Y,,Y,Week 12,12,85,2014-03-26,WEEK 12,9,,Bilirubin (umol/L),BILI,3,CHEM,6.84,6.84,3,21,2.28,0.325714285714286,2.28,0.325714285714286,,,NA,R2A1HI > 1.5,N,0
CDISCPILOT01,1097,01-701-1097,Xanomeline Low Dose,54,Xanomeline Low Dose,54,2014-01-01,2014-07-09,68,65-80,2,WHITE,1,M,Y,,Y,Week 12,12,NA,NA,,NA,DERIVED,Bilirubin 1.5 x ULN,BILIHY,4,HYLAW,0,0,NA,NA,NA,NA,NA,NA,,Normal to Normal,1,,,NA
CDISCPILOT01,1097,01-701-1097,Xanomeline Low Dose,54,Xanomeline Low Dose,54,2014-01-01,2014-07-09,68,65-80,2,WHITE,1,M,Y,,Y,Week 12,12,NA,NA,,NA,DERIVED,Transaminase 1.5 x ULN,TRANSHY,5,HYLAW,0,0,NA,NA,NA,NA,NA,NA,,Normal to Normal,1,,,NA
CDISCPILOT01,1097,01-701-1097,Xanomeline Low Dose,54,Xanomeline Low Dose,54,2014-01-01,2014-07-09,68,65-80,2,WHITE,1,M,Y,,Y,Week 12,12,NA,NA,,NA,DERIVED,Total Bili 1.5 x ULN and Transaminase 1.5 x ULN,HYLAW,6,HYLAW,0,0,NA,NA,NA,NA,NA,NA,,Normal to Normal,1,,,NA
CDISCPILOT01,1097,01-701-1097,Xanomeline Low Dose,54,Xanomeline Low Dose,54,2014-01-01,2014-07-09,68,65-80,2,WHITE,1,M,Y,,Y,Week 16,16,113,2014-04-23,WEEK 16,10,,Alanine Aminotransferase (U/L),ALT,1,CHEM,15,16,6,43,2.5,0.348837209302326,2.66666666666667,0.372093023255814,,,NA,R2A1HI > 1.5,N,0
CDISCPILOT01,1097,01-701-1097,Xanomeline Low Dose,54,Xanomeline Low Dose,54,2014-01-01,2014-07-09,68,65-80,2,WHITE,1,M,Y,,Y,Week 16,16,113,2014-04-23,WEEK 16,10,,Aspartate Aminotransferase (U/L),AST,2,CHEM,17,19,11,36,1.54545454545455,0.472222222222222,1.72727272727273,0.527777777777778,,,NA,R2A1HI > 1.5,N,0
CDISCPILOT01,1097,01-701-1097,Xanomeline Low Dose,54,Xanomeline Low Dose,54,2014-01-01,2014-07-09,68,65-80,2,WHITE,1,M,Y,,Y,Week 16,16,113,2014-04-23,WEEK 16,10,,Bilirubin (umol/L),BILI,3,CHEM,6.84,6.84,3,21,2.28,0.325714285714286,2.28,0.325714285714286,,,NA,R2A1HI > 1.5,N,0
CDISCPILOT01,1097,01-701-1097,Xanomeline Low Dose,54,Xanomeline Low Dose,54,2014-01-01,2014-07-09,68,65-80,2,WHITE,1,M,Y,,Y,Week 16,16,NA,NA,,NA,DERIVED,Bilirubin 1.5 x ULN,BILIHY,4,HYLAW,0,0,NA,NA,NA,NA,NA,NA,,Normal to Normal,1,,,NA
CDISCPILOT01,1097,01-701-1097,Xanomeline Low Dose,54,Xanomeline Low Dose,54,2014-01-01,2014-07-09,68,65-80,2,WHITE,1,M,Y,,Y,Week 16,16,NA,NA,,NA,DERIVED,Transaminase 1.5 x ULN,TRANSHY,5,HYLAW,0,0,NA,NA,NA,NA,NA,NA,,Normal to Normal,1,,,NA
CDISCPILOT01,1097,01-701-1097,Xanomeline Low Dose,54,Xanomeline Low Dose,54,2014-01-01,2014-07-09,68,65-80,2,WHITE,1,M,Y,,Y,Week 16,16,NA,NA,,NA,DERIVED,Total Bili 1.5 x ULN and Transaminase 1.5 x ULN,HYLAW,6,HYLAW,0,0,NA,NA,NA,NA,NA,NA,,Normal to Normal,1,,,NA
CDISCPILOT01,1097,01-701-1097,Xanomeline Low Dose,54,Xanomeline Low Dose,54,2014-01-01,2014-07-09,68,65-80,2,WHITE,1,M,Y,,Y,Week 20,20,141,2014-05-21,WEEK 20,11,,Alanine Aminotransferase (U/L),ALT,1,CHEM,11,16,6,43,1.83333333333333,0.255813953488372,2.66666666666667,0.372093023255814,,,NA,R2A1HI > 1.5,N,0
CDISCPILOT01,1097,01-701-1097,Xanomeline Low Dose,54,Xanomeline Low Dose,54,2014-01-01,2014-07-09,68,65-80,2,WHITE,1,M,Y,,Y,Week 20,20,141,2014-05-21,WEEK 20,11,,Aspartate Aminotransferase (U/L),AST,2,CHEM,16,19,11,36,1.45454545454545,0.444444444444444,1.72727272727273,0.527777777777778,,,NA,R2A1HI > 1.5,N,0
CDISCPILOT01,1097,01-701-1097,Xanomeline Low Dose,54,Xanomeline Low Dose,54,2014-01-01,2014-07-09,68,65-80,2,WHITE,1,M,Y,,Y,Week 20,20,141,2014-05-21,WEEK 20,11,,Bilirubin (umol/L),BILI,3,CHEM,5.13,6.84,3,21,1.71,0.244285714285714,2.28,0.325714285714286,,,NA,R2A1HI > 1.5,N,0
CDISCPILOT01,1097,01-701-1097,Xanomeline Low Dose,54,Xanomeline Low Dose,54,2014-01-01,2014-07-09,68,65-80,2,WHITE,1,M,Y,,Y,Week 20,20,NA,NA,,NA,DERIVED,Bilirubin 1.5 x ULN,BILIHY,4,HYLAW,0,0,NA,NA,NA,NA,NA,NA,,Normal to Normal,1,,,NA
CDISCPILOT01,1097,01-701-1097,Xanomeline Low Dose,54,Xanomeline Low Dose,54,2014-01-01,2014-07-09,68,65-80,2,WHITE,1,M,Y,,Y,Week 20,20,NA,NA,,NA,DERIVED,Transaminase 1.5 x ULN,TRANSHY,5,HYLAW,0,0,NA,NA,NA,NA,NA,NA,,Normal to Normal,1,,,NA
CDISCPILOT01,1097,01-701-1097,Xanomeline Low Dose,54,Xanomeline Low Dose,54,2014-01-01,2014-07-09,68,65-80,2,WHITE,1,M,Y,,Y,Week 20,20,NA,NA,,NA,DERIVED,Total Bili 1.5 x ULN and Transaminase 1.5 x ULN,HYLAW,6,HYLAW,0,0,NA,NA,NA,NA,NA,NA,,Normal to Normal,1,,,NA
CDISCPILOT01,1097,01-701-1097,Xanomeline Low Dose,54,Xanomeline Low Dose,54,2014-01-01,2014-07-09,68,65-80,2,WHITE,1,M,Y,,Y,Week 24,24,169,2014-06-18,WEEK 24,12,,Alanine Aminotransferase (U/L),ALT,1,CHEM,18,16,6,43,3,0.418604651162791,2.66666666666667,0.372093023255814,,,NA,R2A1HI > 1.5,N,0
CDISCPILOT01,1097,01-701-1097,Xanomeline Low Dose,54,Xanomeline Low Dose,54,2014-01-01,2014-07-09,68,65-80,2,WHITE,1,M,Y,,Y,Week 24,24,169,2014-06-18,WEEK 24,12,,Aspartate Aminotransferase (U/L),AST,2,CHEM,20,19,11,36,1.81818181818182,0.555555555555556,1.72727272727273,0.527777777777778,,,NA,R2A1HI > 1.5,N,0
CDISCPILOT01,1097,01-701-1097,Xanomeline Low Dose,54,Xanomeline Low Dose,54,2014-01-01,2014-07-09,68,65-80,2,WHITE,1,M,Y,,Y,Week 24,24,169,2014-06-18,WEEK 24,12,,Bilirubin (umol/L),BILI,3,CHEM,10.26,6.84,3,21,3.42,0.488571428571429,2.28,0.325714285714286,,,NA,R2A1HI > 1.5,N,0
CDISCPILOT01,1097,01-701-1097,Xanomeline Low Dose,54,Xanomeline Low Dose,54,2014-01-01,2014-07-09,68,65-80,2,WHITE,1,M,Y,,Y,Week 24,24,NA,NA,,NA,DERIVED,Bilirubin 1.5 x ULN,BILIHY,4,HYLAW,0,0,NA,NA,NA,NA,NA,NA,,Normal to Normal,1,,,NA
CDISCPILOT01,1097,01-701-1097,Xanomeline Low Dose,54,Xanomeline Low Dose,54,2014-01-01,2014-07-09,68,65-80,2,WHITE,1,M,Y,,Y,Week 24,24,NA,NA,,NA,DERIVED,Transaminase 1.5 x ULN,TRANSHY,5,HYLAW,0,0,NA,NA,NA,NA,NA,NA,,Normal to Normal,1,,,NA
CDISCPILOT01,1097,01-701-1097,Xanomeline Low Dose,54,Xanomeline Low Dose,54,2014-01-01,2014-07-09,68,65-80,2,WHITE,1,M,Y,,Y,Week 24,24,NA,NA,,NA,DERIVED,Total Bili 1.5 x ULN and Transaminase 1.5 x ULN,HYLAW,6,HYLAW,0,0,NA,NA,NA,NA,NA,NA,,Normal to Normal,1,,,NA
CDISCPILOT01,1111,01-701-1111,Xanomeline Low Dose,54,Xanomeline Low Dose,54,2012-09-07,2012-09-16,81,>80,3,WHITE,1,F,N,Y,Y,Baseline,0,-13,2012-08-25,SCREENING 1,1,,Alanine Aminotransferase (U/L),ALT,1,CHEM,23,23,6,32,3.83333333333333,0.71875,3.83333333333333,0.71875,Y,,NA,R2A1HI > 1.5,N,0
CDISCPILOT01,1111,01-701-1111,Xanomeline Low Dose,54,Xanomeline Low Dose,54,2012-09-07,2012-09-16,81,>80,3,WHITE,1,F,N,Y,Y,Baseline,0,-13,2012-08-25,SCREENING 1,1,,Aspartate Aminotransferase (U/L),AST,2,CHEM,28,28,9,34,3.11111111111111,0.823529411764706,3.11111111111111,0.823529411764706,Y,,NA,R2A1HI > 1.5,N,0
CDISCPILOT01,1111,01-701-1111,Xanomeline Low Dose,54,Xanomeline Low Dose,54,2012-09-07,2012-09-16,81,>80,3,WHITE,1,F,N,Y,Y,Baseline,0,-13,2012-08-25,SCREENING 1,1,,Bilirubin (umol/L),BILI,3,CHEM,6.84,6.84,3,21,2.28,0.325714285714286,2.28,0.325714285714286,Y,,NA,R2A1HI > 1.5,N,0
CDISCPILOT01,1111,01-701-1111,Xanomeline Low Dose,54,Xanomeline Low Dose,54,2012-09-07,2012-09-16,81,>80,3,WHITE,1,F,N,Y,Y,Baseline,0,NA,NA,,NA,DERIVED,Bilirubin 1.5 x ULN,BILIHY,4,HYLAW,0,0,NA,NA,NA,NA,NA,NA,Y,Normal to Normal,1,,,NA
CDISCPILOT01,1111,01-701-1111,Xanomeline Low Dose,54,Xanomeline Low Dose,54,2012-09-07,2012-09-16,81,>80,3,WHITE,1,F,N,Y,Y,Baseline,0,NA,NA,,NA,DERIVED,Transaminase 1.5 x ULN,TRANSHY,5,HYLAW,0,0,NA,NA,NA,NA,NA,NA,Y,Normal to Normal,1,,,NA
CDISCPILOT01,1111,01-701-1111,Xanomeline Low Dose,54,Xanomeline Low Dose,54,2012-09-07,2012-09-16,81,>80,3,WHITE,1,F,N,Y,Y,Baseline,0,NA,NA,,NA,DERIVED,Total Bili 1.5 x ULN and Transaminase 1.5 x ULN,HYLAW,6,HYLAW,0,0,NA,NA,NA,NA,NA,NA,Y,Normal to Normal,1,,,NA
CDISCPILOT01,1111,01-701-1111,Xanomeline Low Dose,54,Xanomeline Low Dose,54,2012-09-07,2012-09-16,81,>80,3,WHITE,1,F,N,Y,Y,Week 2,2,11,2012-09-17,WEEK 2,4,,Alanine Aminotransferase (U/L),ALT,1,CHEM,19,23,6,32,3.16666666666667,0.59375,3.83333333333333,0.71875,,,NA,R2A1HI > 1.5,N,0
CDISCPILOT01,1111,01-701-1111,Xanomeline Low Dose,54,Xanomeline Low Dose,54,2012-09-07,2012-09-16,81,>80,3,WHITE,1,F,N,Y,Y,Week 2,2,11,2012-09-17,WEEK 2,4,,Aspartate Aminotransferase (U/L),AST,2,CHEM,23,28,9,34,2.55555555555556,0.676470588235294,3.11111111111111,0.823529411764706,,,NA,R2A1HI > 1.5,N,0
CDISCPILOT01,1111,01-701-1111,Xanomeline Low Dose,54,Xanomeline Low Dose,54,2012-09-07,2012-09-16,81,>80,3,WHITE,1,F,N,Y,Y,Week 2,2,11,2012-09-17,WEEK 2,4,,Bilirubin (umol/L),BILI,3,CHEM,8.55,6.84,3,21,2.85,0.407142857142857,2.28,0.325714285714286,,,NA,R2A1HI > 1.5,N,0
CDISCPILOT01,1111,01-701-1111,Xanomeline Low Dose,54,Xanomeline Low Dose,54,2012-09-07,2012-09-16,81,>80,3,WHITE,1,F,N,Y,Y,Week 2,2,NA,NA,,NA,DERIVED,Bilirubin 1.5 x ULN,BILIHY,4,HYLAW,0,0,NA,NA,NA,NA,NA,NA,,Normal to Normal,1,,,NA
CDISCPILOT01,1111,01-701-1111,Xanomeline Low Dose,54,Xanomeline Low Dose,54,2012-09-07,2012-09-16,81,>80,3,WHITE,1,F,N,Y,Y,Week 2,2,NA,NA,,NA,DERIVED,Transaminase 1.5 x ULN,TRANSHY,5,HYLAW,0,0,NA,NA,NA,NA,NA,NA,,Normal to Normal,1,,,NA
CDISCPILOT01,1111,01-701-1111,Xanomeline Low Dose,54,Xanomeline Low Dose,54,2012-09-07,2012-09-16,81,>80,3,WHITE,1,F,N,Y,Y,Week 2,2,NA,NA,,NA,DERIVED,Total Bili 1.5 x ULN and Transaminase 1.5 x ULN,HYLAW,6,HYLAW,0,0,NA,NA,NA,NA,NA,NA,,Normal to Normal,1,,,NA
CDISCPILOT01,1115,01-701-1115,Xanomeline Low Dose,54,Xanomeline Low Dose,54,2012-11-30,2013-01-23,84,>80,3,WHITE,1,M,N,Y,Y,Baseline,0,-7,2012-11-23,SCREENING 1,1,,Alanine Aminotransferase (U/L),ALT,1,CHEM,18,18,6,35,3,0.514285714285714,3,0.514285714285714,Y,,NA,R2A1HI > 1.5,N,0
CDISCPILOT01,1115,01-701-1115,Xanomeline Low Dose,54,Xanomeline Low Dose,54,2012-11-30,2013-01-23,84,>80,3,WHITE,1,M,N,Y,Y,Baseline,0,-7,2012-11-23,SCREENING 1,1,,Aspartate Aminotransferase (U/L),AST,2,CHEM,26,26,11,36,2.36363636363636,0.722222222222222,2.36363636363636,0.722222222222222,Y,,NA,R2A1HI > 1.5,N,0
CDISCPILOT01,1115,01-701-1115,Xanomeline Low Dose,54,Xanomeline Low Dose,54,2012-11-30,2013-01-23,84,>80,3,WHITE,1,M,N,Y,Y,Baseline,0,-7,2012-11-23,SCREENING 1,1,,Bilirubin (umol/L),BILI,3,CHEM,8.55,8.55,3,21,2.85,0.407142857142857,2.85,0.407142857142857,Y,,NA,R2A1HI > 1.5,N,0
CDISCPILOT01,1115,01-701-1115,Xanomeline Low Dose,54,Xanomeline Low Dose,54,2012-11-30,2013-01-23,84,>80,3,WHITE,1,M,N,Y,Y,Baseline,0,NA,NA,,NA,DERIVED,Bilirubin 1.5 x ULN,BILIHY,4,HYLAW,0,0,NA,NA,NA,NA,NA,NA,Y,Normal to Normal,1,,,NA
CDISCPILOT01,1115,01-701-1115,Xanomeline Low Dose,54,Xanomeline Low Dose,54,2012-11-30,2013-01-23,84,>80,3,WHITE,1,M,N,Y,Y,Baseline,0,NA,NA,,NA,DERIVED,Transaminase 1.5 x ULN,TRANSHY,5,HYLAW,0,0,NA,NA,NA,NA,NA,NA,Y,Normal to Normal,1,,,NA
CDISCPILOT01,1115,01-701-1115,Xanomeline Low Dose,54,Xanomeline Low Dose,54,2012-11-30,2013-01-23,84,>80,3,WHITE,1,M,N,Y,Y,Baseline,0,NA,NA,,NA,DERIVED,Total Bili 1.5 x ULN and Transaminase 1.5 x ULN,HYLAW,6,HYLAW,0,0,NA,NA,NA,NA,NA,NA,Y,Normal to Normal,1,,,NA
CDISCPILOT01,1115,01-701-1115,Xanomeline Low Dose,54,Xanomeline Low Dose,54,2012-11-30,2013-01-23,84,>80,3,WHITE,1,M,N,Y,Y,Week 2,2,14,2012-12-13,WEEK 2,4,,Alanine Aminotransferase (U/L),ALT,1,CHEM,15,18,6,35,2.5,0.428571428571429,3,0.514285714285714,,,NA,R2A1HI > 1.5,N,0
CDISCPILOT01,1115,01-701-1115,Xanomeline Low Dose,54,Xanomeline Low Dose,54,2012-11-30,2013-01-23,84,>80,3,WHITE,1,M,N,Y,Y,Week 2,2,14,2012-12-13,WEEK 2,4,,Aspartate Aminotransferase (U/L),AST,2,CHEM,25,26,11,36,2.27272727272727,0.694444444444444,2.36363636363636,0.722222222222222,,,NA,R2A1HI > 1.5,N,0
CDISCPILOT01,1115,01-701-1115,Xanomeline Low Dose,54,Xanomeline Low Dose,54,2012-11-30,2013-01-23,84,>80,3,WHITE,1,M,N,Y,Y,Week 2,2,14,2012-12-13,WEEK 2,4,,Bilirubin (umol/L),BILI,3,CHEM,6.84,8.55,3,21,2.28,0.325714285714286,2.85,0.407142857142857,,,NA,R2A1HI > 1.5,N,0
CDISCPILOT01,1115,01-701-1115,Xanomeline Low Dose,54,Xanomeline Low Dose,54,2012-11-30,2013-01-23,84,>80,3,WHITE,1,M,N,Y,Y,Week 2,2,NA,NA,,NA,DERIVED,Bilirubin 1.5 x ULN,BILIHY,4,HYLAW,0,0,NA,NA,NA,NA,NA,NA,,Normal to Normal,1,,,NA
CDISCPILOT01,1115,01-701-1115,Xanomeline Low Dose,54,Xanomeline Low Dose,54,2012-11-30,2013-01-23,84,>80,3,WHITE,1,M,N,Y,Y,Week 2,2,NA,NA,,NA,DERIVED,Transaminase 1.5 x ULN,TRANSHY,5,HYLAW,0,0,NA,NA,NA,NA,NA,NA,,Normal to Normal,1,,,NA
CDISCPILOT01,1115,01-701-1115,Xanomeline Low Dose,54,Xanomeline Low Dose,54,2012-11-30,2013-01-23,84,>80,3,WHITE,1,M,N,Y,Y,Week 2,2,NA,NA,,NA,DERIVED,Total Bili 1.5 x ULN and Transaminase 1.5 x ULN,HYLAW,6,HYLAW,0,0,NA,NA,NA,NA,NA,NA,,Normal to Normal,1,,,NA
CDISCPILOT01,1115,01-701-1115,Xanomeline Low Dose,54,Xanomeline Low Dose,54,2012-11-30,2013-01-23,84,>80,3,WHITE,1,M,N,Y,Y,Week 4,4,27,2012-12-26,WEEK 4,5,,Alanine Aminotransferase (U/L),ALT,1,CHEM,13,18,6,35,2.16666666666667,0.371428571428571,3,0.514285714285714,,,NA,R2A1HI > 1.5,N,0
CDISCPILOT01,1115,01-701-1115,Xanomeline Low Dose,54,Xanomeline Low Dose,54,2012-11-30,2013-01-23,84,>80,3,WHITE,1,M,N,Y,Y,Week 4,4,27,2012-12-26,WEEK 4,5,,Aspartate Aminotransferase (U/L),AST,2,CHEM,20,26,11,36,1.81818181818182,0.555555555555556,2.36363636363636,0.722222222222222,,,NA,R2A1HI > 1.5,N,0
CDISCPILOT01,1115,01-701-1115,Xanomeline Low Dose,54,Xanomeline Low Dose,54,2012-11-30,2013-01-23,84,>80,3,WHITE,1,M,N,Y,Y,Week 4,4,27,2012-12-26,WEEK 4,5,,Bilirubin (umol/L),BILI,3,CHEM,6.84,8.55,3,21,2.28,0.325714285714286,2.85,0.407142857142857,,,NA,R2A1HI > 1.5,N,0
CDISCPILOT01,1115,01-701-1115,Xanomeline Low Dose,54,Xanomeline Low Dose,54,2012-11-30,2013-01-23,84,>80,3,WHITE,1,M,N,Y,Y,Week 4,4,NA,NA,,NA,DERIVED,Bilirubin 1.5 x ULN,BILIHY,4,HYLAW,0,0,NA,NA,NA,NA,NA,NA,,Normal to Normal,1,,,NA
CDISCPILOT01,1115,01-701-1115,Xanomeline Low Dose,54,Xanomeline Low Dose,54,2012-11-30,2013-01-23,84,>80,3,WHITE,1,M,N,Y,Y,Week 4,4,NA,NA,,NA,DERIVED,Transaminase 1.5 x ULN,TRANSHY,5,HYLAW,0,0,NA,NA,NA,NA,NA,NA,,Normal to Normal,1,,,NA
CDISCPILOT01,1115,01-701-1115,Xanomeline Low Dose,54,Xanomeline Low Dose,54,2012-11-30,2013-01-23,84,>80,3,WHITE,1,M,N,Y,Y,Week 4,4,NA,NA,,NA,DERIVED,Total Bili 1.5 x ULN and Transaminase 1.5 x ULN,HYLAW,6,HYLAW,0,0,NA,NA,NA,NA,NA,NA,,Normal to Normal,1,,,NA
CDISCPILOT01,1115,01-701-1115,Xanomeline Low Dose,54,Xanomeline Low Dose,54,2012-11-30,2013-01-23,84,>80,3,WHITE,1,M,N,Y,Y,Week 6,6,42,2013-01-10,WEEK 6,7,,Alanine Aminotransferase (U/L),ALT,1,CHEM,18,18,6,35,3,0.514285714285714,3,0.514285714285714,,,NA,R2A1HI > 1.5,N,0
CDISCPILOT01,1115,01-701-1115,Xanomeline Low Dose,54,Xanomeline Low Dose,54,2012-11-30,2013-01-23,84,>80,3,WHITE,1,M,N,Y,Y,Week 6,6,42,2013-01-10,WEEK 6,7,,Aspartate Aminotransferase (U/L),AST,2,CHEM,25,26,11,36,2.27272727272727,0.694444444444444,2.36363636363636,0.722222222222222,,,NA,R2A1HI > 1.5,N,0
CDISCPILOT01,1115,01-701-1115,Xanomeline Low Dose,54,Xanomeline Low Dose,54,2012-11-30,2013-01-23,84,>80,3,WHITE,1,M,N,Y,Y,Week 6,6,42,2013-01-10,WEEK 6,7,,Bilirubin (umol/L),BILI,3,CHEM,6.84,8.55,3,21,2.28,0.325714285714286,2.85,0.407142857142857,,,NA,R2A1HI > 1.5,N,0
CDISCPILOT01,1115,01-701-1115,Xanomeline Low Dose,54,Xanomeline Low Dose,54,2012-11-30,2013-01-23,84,>80,3,WHITE,1,M,N,Y,Y,Week 6,6,NA,NA,,NA,DERIVED,Bilirubin 1.5 x ULN,BILIHY,4,HYLAW,0,0,NA,NA,NA,NA,NA,NA,,Normal to Normal,1,,,NA
CDISCPILOT01,1115,01-701-1115,Xanomeline Low Dose,54,Xanomeline Low Dose,54,2012-11-30,2013-01-23,84,>80,3,WHITE,1,M,N,Y,Y,Week 6,6,NA,NA,,NA,DERIVED,Transaminase 1.5 x ULN,TRANSHY,5,HYLAW,0,0,NA,NA,NA,NA,NA,NA,,Normal to Normal,1,,,NA
CDISCPILOT01,1115,01-701-1115,Xanomeline Low Dose,54,Xanomeline Low Dose,54,2012-11-30,2013-01-23,84,>80,3,WHITE,1,M,N,Y,Y,Week 6,6,NA,NA,,NA,DERIVED,Total Bili 1.5 x ULN and Transaminase 1.5 x ULN,HYLAW,6,HYLAW,0,0,NA,NA,NA,NA,NA,NA,,Normal to Normal,1,,,NA
CDISCPILOT01,1115,01-701-1115,Xanomeline Low Dose,54,Xanomeline Low Dose,54,2012-11-30,2013-01-23,84,>80,3,WHITE,1,M,N,Y,Y,Week 8,8,55,2013-01-23,WEEK 8,8,,Alanine Aminotransferase (U/L),ALT,1,CHEM,16,18,6,35,2.66666666666667,0.457142857142857,3,0.514285714285714,,,NA,R2A1HI > 1.5,N,0
CDISCPILOT01,1115,01-701-1115,Xanomeline Low Dose,54,Xanomeline Low Dose,54,2012-11-30,2013-01-23,84,>80,3,WHITE,1,M,N,Y,Y,Week 8,8,55,2013-01-23,WEEK 8,8,,Aspartate Aminotransferase (U/L),AST,2,CHEM,25,26,11,36,2.27272727272727,0.694444444444444,2.36363636363636,0.722222222222222,,,NA,R2A1HI > 1.5,N,0
CDISCPILOT01,1115,01-701-1115,Xanomeline Low Dose,54,Xanomeline Low Dose,54,2012-11-30,2013-01-23,84,>80,3,WHITE,1,M,N,Y,Y,Week 8,8,55,2013-01-23,WEEK 8,8,,Bilirubin (umol/L),BILI,3,CHEM,8.55,8.55,3,21,2.85,0.407142857142857,2.85,0.407142857142857,,,NA,R2A1HI > 1.5,N,0
CDISCPILOT01,1115,01-701-1115,Xanomeline Low Dose,54,Xanomeline Low Dose,54,2012-11-30,2013-01-23,84,>80,3,WHITE,1,M,N,Y,Y,Week 8,8,NA,NA,,NA,DERIVED,Bilirubin 1.5 x ULN,BILIHY,4,HYLAW,0,0,NA,NA,NA,NA,NA,NA,,Normal to Normal,1,,,NA
CDISCPILOT01,1115,01-701-1115,Xanomeline Low Dose,54,Xanomeline Low Dose,54,2012-11-30,2013-01-23,84,>80,3,WHITE,1,M,N,Y,Y,Week 8,8,NA,NA,,NA,DERIVED,Transaminase 1.5 x ULN,TRANSHY,5,HYLAW,0,0,NA,NA,NA,NA,NA,NA,,Normal to Normal,1,,,NA
CDISCPILOT01,1115,01-701-1115,Xanomeline Low Dose,54,Xanomeline Low Dose,54,2012-11-30,2013-01-23,84,>80,3,WHITE,1,M,N,Y,Y,Week 8,8,NA,NA,,NA,DERIVED,Total Bili 1.5 x ULN and Transaminase 1.5 x ULN,HYLAW,6,HYLAW,0,0,NA,NA,NA,NA,NA,NA,,Normal to Normal,1,,,NA
CDISCPILOT01,1118,01-701-1118,Placebo,0,Placebo,0,2014-03-12,2014-09-09,52,<65,1,WHITE,1,M,Y,,Y,Baseline,0,-13,2014-02-27,SCREENING 1,1,,Alanine Aminotransferase (U/L),ALT,1,CHEM,15,15,6,43,2.5,0.348837209302326,2.5,0.348837209302326,Y,,NA,R2A1HI > 1.5,N,0
CDISCPILOT01,1118,01-701-1118,Placebo,0,Placebo,0,2014-03-12,2014-09-09,52,<65,1,WHITE,1,M,Y,,Y,Baseline,0,-13,2014-02-27,SCREENING 1,1,,Aspartate Aminotransferase (U/L),AST,2,CHEM,15,15,11,36,1.36363636363636,0.416666666666667,1.36363636363636,0.416666666666667,Y,,NA,R2A1HI > 1.5,N,0
CDISCPILOT01,1118,01-701-1118,Placebo,0,Placebo,0,2014-03-12,2014-09-09,52,<65,1,WHITE,1,M,Y,,Y,Baseline,0,-13,2014-02-27,SCREENING 1,1,,Bilirubin (umol/L),BILI,3,CHEM,11.97,11.97,3,21,3.99,0.57,3.99,0.57,Y,,NA,R2A1HI > 1.5,N,0
CDISCPILOT01,1118,01-701-1118,Placebo,0,Placebo,0,2014-03-12,2014-09-09,52,<65,1,WHITE,1,M,Y,,Y,Baseline,0,NA,NA,,NA,DERIVED,Bilirubin 1.5 x ULN,BILIHY,4,HYLAW,0,0,NA,NA,NA,NA,NA,NA,Y,Normal to Normal,1,,,NA
CDISCPILOT01,1118,01-701-1118,Placebo,0,Placebo,0,2014-03-12,2014-09-09,52,<65,1,WHITE,1,M,Y,,Y,Baseline,0,NA,NA,,NA,DERIVED,Transaminase 1.5 x ULN,TRANSHY,5,HYLAW,0,0,NA,NA,NA,NA,NA,NA,Y,Normal to Normal,1,,,NA
CDISCPILOT01,1118,01-701-1118,Placebo,0,Placebo,0,2014-03-12,2014-09-09,52,<65,1,WHITE,1,M,Y,,Y,Baseline,0,NA,NA,,NA,DERIVED,Total Bili 1.5 x ULN and Transaminase 1.5 x ULN,HYLAW,6,HYLAW,0,0,NA,NA,NA,NA,NA,NA,Y,Normal to Normal,1,,,NA
CDISCPILOT01,1118,01-701-1118,Placebo,0,Placebo,0,2014-03-12,2014-09-09,52,<65,1,WHITE,1,M,Y,,Y,Week 2,2,15,2014-03-26,WEEK 2,4,,Alanine Aminotransferase (U/L),ALT,1,CHEM,7,15,6,43,1.16666666666667,0.162790697674419,2.5,0.348837209302326,,,NA,R2A1HI > 1.5,N,0
CDISCPILOT01,1118,01-701-1118,Placebo,0,Placebo,0,2014-03-12,2014-09-09,52,<65,1,WHITE,1,M,Y,,Y,Week 2,2,15,2014-03-26,WEEK 2,4,,Aspartate Aminotransferase (U/L),AST,2,CHEM,13,15,11,36,1.18181818181818,0.361111111111111,1.36363636363636,0.416666666666667,,,NA,R2A1HI > 1.5,N,0
CDISCPILOT01,1118,01-701-1118,Placebo,0,Placebo,0,2014-03-12,2014-09-09,52,<65,1,WHITE,1,M,Y,,Y,Week 2,2,15,2014-03-26,WEEK 2,4,,Bilirubin (umol/L),BILI,3,CHEM,8.55,11.97,3,21,2.85,0.407142857142857,3.99,0.57,,,NA,R2A1HI > 1.5,N,0
CDISCPILOT01,1118,01-701-1118,Placebo,0,Placebo,0,2014-03-12,2014-09-09,52,<65,1,WHITE,1,M,Y,,Y,Week 2,2,NA,NA,,NA,DERIVED,Bilirubin 1.5 x ULN,BILIHY,4,HYLAW,0,0,NA,NA,NA,NA,NA,NA,,Normal to Normal,1,,,NA
CDISCPILOT01,1118,01-701-1118,Placebo,0,Placebo,0,2014-03-12,2014-09-09,52,<65,1,WHITE,1,M,Y,,Y,Week 2,2,NA,NA,,NA,DERIVED,Transaminase 1.5 x ULN,TRANSHY,5,HYLAW,0,0,NA,NA,NA,NA,NA,NA,,Normal to Normal,1,,,NA
CDISCPILOT01,1118,01-701-1118,Placebo,0,Placebo,0,2014-03-12,2014-09-09,52,<65,1,WHITE,1,M,Y,,Y,Week 2,2,NA,NA,,NA,DERIVED,Total Bili 1.5 x ULN and Transaminase 1.5 x ULN,HYLAW,6,HYLAW,0,0,NA,NA,NA,NA,NA,NA,,Normal to Normal,1,,,NA
CDISCPILOT01,1118,01-701-1118,Placebo,0,Placebo,0,2014-03-12,2014-09-09,52,<65,1,WHITE,1,M,Y,,Y,Week 4,4,29,2014-04-09,WEEK 4,5,,Alanine Aminotransferase (U/L),ALT,1,CHEM,15,15,6,43,2.5,0.348837209302326,2.5,0.348837209302326,,,NA,R2A1HI > 1.5,N,0
CDISCPILOT01,1118,01-701-1118,Placebo,0,Placebo,0,2014-03-12,2014-09-09,52,<65,1,WHITE,1,M,Y,,Y,Week 4,4,29,2014-04-09,WEEK 4,5,,Aspartate Aminotransferase (U/L),AST,2,CHEM,14,15,11,36,1.27272727272727,0.388888888888889,1.36363636363636,0.416666666666667,,,NA,R2A1HI > 1.5,N,0
CDISCPILOT01,1118,01-701-1118,Placebo,0,Placebo,0,2014-03-12,2014-09-09,52,<65,1,WHITE,1,M,Y,,Y,Week 4,4,29,2014-04-09,WEEK 4,5,,Bilirubin (umol/L),BILI,3,CHEM,10.26,11.97,3,21,3.42,0.488571428571429,3.99,0.57,,,NA,R2A1HI > 1.5,N,0
CDISCPILOT01,1118,01-701-1118,Placebo,0,Placebo,0,2014-03-12,2014-09-09,52,<65,1,WHITE,1,M,Y,,Y,Week 4,4,NA,NA,,NA,DERIVED,Bilirubin 1.5 x ULN,BILIHY,4,HYLAW,0,0,NA,NA,NA,NA,NA,NA,,Normal to Normal,1,,,NA
CDISCPILOT01,1118,01-701-1118,Placebo,0,Placebo,0,2014-03-12,2014-09-09,52,<65,1,WHITE,1,M,Y,,Y,Week 4,4,NA,NA,,NA,DERIVED,Transaminase 1.5 x ULN,TRANSHY,5,HYLAW,0,0,NA,NA,NA,NA,NA,NA,,Normal to Normal,1,,,NA
CDISCPILOT01,1118,01-701-1118,Placebo,0,Placebo,0,2014-03-12,2014-09-09,52,<65,1,WHITE,1,M,Y,,Y,Week 4,4,NA,NA,,NA,DERIVED,Total Bili 1.5 x ULN and Transaminase 1.5 x ULN,HYLAW,6,HYLAW,0,0,NA,NA,NA,NA,NA,NA,,Normal to Normal,1,,,NA
CDISCPILOT01,1118,01-701-1118,Placebo,0,Placebo,0,2014-03-12,2014-09-09,52,<65,1,WHITE,1,M,Y,,Y,Week 6,6,43,2014-04-23,WEEK 6,7,,Alanine Aminotransferase (U/L),ALT,1,CHEM,11,15,6,43,1.83333333333333,0.255813953488372,2.5,0.348837209302326,,,NA,R2A1HI > 1.5,N,0
CDISCPILOT01,1118,01-701-1118,Placebo,0,Placebo,0,2014-03-12,2014-09-09,52,<65,1,WHITE,1,M,Y,,Y,Week 6,6,43,2014-04-23,WEEK 6,7,,Aspartate Aminotransferase (U/L),AST,2,CHEM,15,15,11,36,1.36363636363636,0.416666666666667,1.36363636363636,0.416666666666667,,,NA,R2A1HI > 1.5,N,0
CDISCPILOT01,1118,01-701-1118,Placebo,0,Placebo,0,2014-03-12,2014-09-09,52,<65,1,WHITE,1,M,Y,,Y,Week 6,6,43,2014-04-23,WEEK 6,7,,Bilirubin (umol/L),BILI,3,CHEM,8.55,11.97,3,21,2.85,0.407142857142857,3.99,0.57,,,NA,R2A1HI > 1.5,N,0
CDISCPILOT01,1118,01-701-1118,Placebo,0,Placebo,0,2014-03-12,2014-09-09,52,<65,1,WHITE,1,M,Y,,Y,Week 6,6,NA,NA,,NA,DERIVED,Bilirubin 1.5 x ULN,BILIHY,4,HYLAW,0,0,NA,NA,NA,NA,NA,NA,,Normal to Normal,1,,,NA
CDISCPILOT01,1118,01-701-1118,Placebo,0,Placebo,0,2014-03-12,2014-09-09,52,<65,1,WHITE,1,M,Y,,Y,Week 6,6,NA,NA,,NA,DERIVED,Transaminase 1.5 x ULN,TRANSHY,5,HYLAW,0,0,NA,NA,NA,NA,NA,NA,,Normal to Normal,1,,,NA
CDISCPILOT01,1118,01-701-1118,Placebo,0,Placebo,0,2014-03-12,2014-09-09,52,<65,1,WHITE,1,M,Y,,Y,Week 6,6,NA,NA,,NA,DERIVED,Total Bili 1.5 x ULN and Transaminase 1.5 x ULN,HYLAW,6,HYLAW,0,0,NA,NA,NA,NA,NA,NA,,Normal to Normal,1,,,NA
CDISCPILOT01,1118,01-701-1118,Placebo,0,Placebo,0,2014-03-12,2014-09-09,52,<65,1,WHITE,1,M,Y,,Y,Week 8,8,58,2014-05-08,WEEK 8,8,,Alanine Aminotransferase (U/L),ALT,1,CHEM,15,15,6,43,2.5,0.348837209302326,2.5,0.348837209302326,,,NA,R2A1HI > 1.5,N,0
CDISCPILOT01,1118,01-701-1118,Placebo,0,Placebo,0,2014-03-12,2014-09-09,52,<65,1,WHITE,1,M,Y,,Y,Week 8,8,58,2014-05-08,WEEK 8,8,,Aspartate Aminotransferase (U/L),AST,2,CHEM,18,15,11,36,1.63636363636364,0.5,1.36363636363636,0.416666666666667,,,NA,R2A1HI > 1.5,N,0
CDISCPILOT01,1118,01-701-1118,Placebo,0,Placebo,0,2014-03-12,2014-09-09,52,<65,1,WHITE,1,M,Y,,Y,Week 8,8,58,2014-05-08,WEEK 8,8,,Bilirubin (umol/L),BILI,3,CHEM,10.26,11.97,3,21,3.42,0.488571428571429,3.99,0.57,,,NA,R2A1HI > 1.5,N,0
CDISCPILOT01,1118,01-701-1118,Placebo,0,Placebo,0,2014-03-12,2014-09-09,52,<65,1,WHITE,1,M,Y,,Y,Week 8,8,NA,NA,,NA,DERIVED,Bilirubin 1.5 x ULN,BILIHY,4,HYLAW,0,0,NA,NA,NA,NA,NA,NA,,Normal to Normal,1,,,NA
CDISCPILOT01,1118,01-701-1118,Placebo,0,Placebo,0,2014-03-12,2014-09-09,52,<65,1,WHITE,1,M,Y,,Y,Week 8,8,NA,NA,,NA,DERIVED,Transaminase 1.5 x ULN,TRANSHY,5,HYLAW,0,0,NA,NA,NA,NA,NA,NA,,Normal to Normal,1,,,NA
CDISCPILOT01,1118,01-701-1118,Placebo,0,Placebo,0,2014-03-12,2014-09-09,52,<65,1,WHITE,1,M,Y,,Y,Week 8,8,NA,NA,,NA,DERIVED,Total Bili 1.5 x ULN and Transaminase 1.5 x ULN,HYLAW,6,HYLAW,0,0,NA,NA,NA,NA,NA,NA,,Normal to Normal,1,,,NA
CDISCPILOT01,1118,01-701-1118,Placebo,0,Placebo,0,2014-03-12,2014-09-09,52,<65,1,WHITE,1,M,Y,,Y,Week 12,12,86,2014-06-05,WEEK 12,9,,Alanine Aminotransferase (U/L),ALT,1,CHEM,16,15,6,43,2.66666666666667,0.372093023255814,2.5,0.348837209302326,,,NA,R2A1HI > 1.5,N,0
CDISCPILOT01,1118,01-701-1118,Placebo,0,Placebo,0,2014-03-12,2014-09-09,52,<65,1,WHITE,1,M,Y,,Y,Week 12,12,86,2014-06-05,WEEK 12,9,,Aspartate Aminotransferase (U/L),AST,2,CHEM,13,15,11,36,1.18181818181818,0.361111111111111,1.36363636363636,0.416666666666667,,,NA,R2A1HI > 1.5,N,0
CDISCPILOT01,1118,01-701-1118,Placebo,0,Placebo,0,2014-03-12,2014-09-09,52,<65,1,WHITE,1,M,Y,,Y,Week 12,12,86,2014-06-05,WEEK 12,9,,Bilirubin (umol/L),BILI,3,CHEM,8.55,11.97,3,21,2.85,0.407142857142857,3.99,0.57,,,NA,R2A1HI > 1.5,N,0
CDISCPILOT01,1118,01-701-1118,Placebo,0,Placebo,0,2014-03-12,2014-09-09,52,<65,1,WHITE,1,M,Y,,Y,Week 12,12,NA,NA,,NA,DERIVED,Bilirubin 1.5 x ULN,BILIHY,4,HYLAW,0,0,NA,NA,NA,NA,NA,NA,,Normal to Normal,1,,,NA
CDISCPILOT01,1118,01-701-1118,Placebo,0,Placebo,0,2014-03-12,2014-09-09,52,<65,1,WHITE,1,M,Y,,Y,Week 12,12,NA,NA,,NA,DERIVED,Transaminase 1.5 x ULN,TRANSHY,5,HYLAW,0,0,NA,NA,NA,NA,NA,NA,,Normal to Normal,1,,,NA
CDISCPILOT01,1118,01-701-1118,Placebo,0,Placebo,0,2014-03-12,2014-09-09,52,<65,1,WHITE,1,M,Y,,Y,Week 12,12,NA,NA,,NA,DERIVED,Total Bili 1.5 x ULN and Transaminase 1.5 x ULN,HYLAW,6,HYLAW,0,0,NA,NA,NA,NA,NA,NA,,Normal to Normal,1,,,NA
CDISCPILOT01,1118,01-701-1118,Placebo,0,Placebo,0,2014-03-12,2014-09-09,52,<65,1,WHITE,1,M,Y,,Y,Week 16,16,113,2014-07-02,WEEK 16,10,,Alanine Aminotransferase (U/L),ALT,1,CHEM,15,15,6,43,2.5,0.348837209302326,2.5,0.348837209302326,,,NA,R2A1HI > 1.5,N,0
CDISCPILOT01,1118,01-701-1118,Placebo,0,Placebo,0,2014-03-12,2014-09-09,52,<65,1,WHITE,1,M,Y,,Y,Week 16,16,113,2014-07-02,WEEK 16,10,,Aspartate Aminotransferase (U/L),AST,2,CHEM,18,15,11,36,1.63636363636364,0.5,1.36363636363636,0.416666666666667,,,NA,R2A1HI > 1.5,N,0
CDISCPILOT01,1118,01-701-1118,Placebo,0,Placebo,0,2014-03-12,2014-09-09,52,<65,1,WHITE,1,M,Y,,Y,Week 16,16,113,2014-07-02,WEEK 16,10,,Bilirubin (umol/L),BILI,3,CHEM,10.26,11.97,3,21,3.42,0.488571428571429,3.99,0.57,,,NA,R2A1HI > 1.5,N,0
CDISCPILOT01,1118,01-701-1118,Placebo,0,Placebo,0,2014-03-12,2014-09-09,52,<65,1,WHITE,1,M,Y,,Y,Week 16,16,NA,NA,,NA,DERIVED,Bilirubin 1.5 x ULN,BILIHY,4,HYLAW,0,0,NA,NA,NA,NA,NA,NA,,Normal to Normal,1,,,NA
CDISCPILOT01,1118,01-701-1118,Placebo,0,Placebo,0,2014-03-12,2014-09-09,52,<65,1,WHITE,1,M,Y,,Y,Week 16,16,NA,NA,,NA,DERIVED,Transaminase 1.5 x ULN,TRANSHY,5,HYLAW,0,0,NA,NA,NA,NA,NA,NA,,Normal to Normal,1,,,NA
CDISCPILOT01,1118,01-701-1118,Placebo,0,Placebo,0,2014-03-12,2014-09-09,52,<65,1,WHITE,1,M,Y,,Y,Week 16,16,NA,NA,,NA,DERIVED,Total Bili 1.5 x ULN and Transaminase 1.5 x ULN,HYLAW,6,HYLAW,0,0,NA,NA,NA,NA,NA,NA,,Normal to Normal,1,,,NA
CDISCPILOT01,1118,01-701-1118,Placebo,0,Placebo,0,2014-03-12,2014-09-09,52,<65,1,WHITE,1,M,Y,,Y,Week 20,20,141,2014-07-30,WEEK 20,11,,Alanine Aminotransferase (U/L),ALT,1,CHEM,13,15,6,43,2.16666666666667,0.302325581395349,2.5,0.348837209302326,,,NA,R2A1HI > 1.5,N,0
CDISCPILOT01,1118,01-701-1118,Placebo,0,Placebo,0,2014-03-12,2014-09-09,52,<65,1,WHITE,1,M,Y,,Y,Week 20,20,141,2014-07-30,WEEK 20,11,,Aspartate Aminotransferase (U/L),AST,2,CHEM,14,15,11,36,1.27272727272727,0.388888888888889,1.36363636363636,0.416666666666667,,,NA,R2A1HI > 1.5,N,0
CDISCPILOT01,1118,01-701-1118,Placebo,0,Placebo,0,2014-03-12,2014-09-09,52,<65,1,WHITE,1,M,Y,,Y,Week 20,20,141,2014-07-30,WEEK 20,11,,Bilirubin (umol/L),BILI,3,CHEM,10.26,11.97,3,21,3.42,0.488571428571429,3.99,0.57,,,NA,R2A1HI > 1.5,N,0
CDISCPILOT01,1118,01-701-1118,Placebo,0,Placebo,0,2014-03-12,2014-09-09,52,<65,1,WHITE,1,M,Y,,Y,Week 20,20,NA,NA,,NA,DERIVED,Bilirubin 1.5 x ULN,BILIHY,4,HYLAW,0,0,NA,NA,NA,NA,NA,NA,,Normal to Normal,1,,,NA
CDISCPILOT01,1118,01-701-1118,Placebo,0,Placebo,0,2014-03-12,2014-09-09,52,<65,1,WHITE,1,M,Y,,Y,Week 20,20,NA,NA,,NA,DERIVED,Transaminase 1.5 x ULN,TRANSHY,5,HYLAW,0,0,NA,NA,NA,NA,NA,NA,,Normal to Normal,1,,,NA
CDISCPILOT01,1118,01-701-1118,Placebo,0,Placebo,0,2014-03-12,2014-09-09,52,<65,1,WHITE,1,M,Y,,Y,Week 20,20,NA,NA,,NA,DERIVED,Total Bili 1.5 x ULN and Transaminase 1.5 x ULN,HYLAW,6,HYLAW,0,0,NA,NA,NA,NA,NA,NA,,Normal to Normal,1,,,NA
CDISCPILOT01,1118,01-701-1118,Placebo,0,Placebo,0,2014-03-12,2014-09-09,52,<65,1,WHITE,1,M,Y,,Y,Week 24,24,169,2014-08-27,WEEK 24,12,,Alanine Aminotransferase (U/L),ALT,1,CHEM,13,15,6,43,2.16666666666667,0.302325581395349,2.5,0.348837209302326,,,NA,R2A1HI > 1.5,N,0
CDISCPILOT01,1118,01-701-1118,Placebo,0,Placebo,0,2014-03-12,2014-09-09,52,<65,1,WHITE,1,M,Y,,Y,Week 24,24,169,2014-08-27,WEEK 24,12,,Aspartate Aminotransferase (U/L),AST,2,CHEM,11,15,11,36,1,0.305555555555556,1.36363636363636,0.416666666666667,,,NA,R2A1HI > 1.5,N,0
CDISCPILOT01,1118,01-701-1118,Placebo,0,Placebo,0,2014-03-12,2014-09-09,52,<65,1,WHITE,1,M,Y,,Y,Week 24,24,169,2014-08-27,WEEK 24,12,,Bilirubin (umol/L),BILI,3,CHEM,8.55,11.97,3,21,2.85,0.407142857142857,3.99,0.57,,,NA,R2A1HI > 1.5,N,0
CDISCPILOT01,1118,01-701-1118,Placebo,0,Placebo,0,2014-03-12,2014-09-09,52,<65,1,WHITE,1,M,Y,,Y,Week 24,24,NA,NA,,NA,DERIVED,Bilirubin 1.5 x ULN,BILIHY,4,HYLAW,0,0,NA,NA,NA,NA,NA,NA,,Normal to Normal,1,,,NA
CDISCPILOT01,1118,01-701-1118,Placebo,0,Placebo,0,2014-03-12,2014-09-09,52,<65,1,WHITE,1,M,Y,,Y,Week 24,24,NA,NA,,NA,DERIVED,Transaminase 1.5 x ULN,TRANSHY,5,HYLAW,0,0,NA,NA,NA,NA,NA,NA,,Normal to Normal,1,,,NA
CDISCPILOT01,1118,01-701-1118,Placebo,0,Placebo,0,2014-03-12,2014-09-09,52,<65,1,WHITE,1,M,Y,,Y,Week 24,24,NA,NA,,NA,DERIVED,Total Bili 1.5 x ULN and Transaminase 1.5 x ULN,HYLAW,6,HYLAW,0,0,NA,NA,NA,NA,NA,NA,,Normal to Normal,1,,,NA
CDISCPILOT01,1130,01-701-1130,Placebo,0,Placebo,0,2014-02-15,2014-08-16,84,>80,3,WHITE,1,M,Y,,Y,Baseline,0,-6,2014-02-09,SCREENING 1,1,,Alanine Aminotransferase (U/L),ALT,1,CHEM,15,15,6,35,2.5,0.428571428571429,2.5,0.428571428571429,Y,,NA,R2A1HI > 1.5,N,0
CDISCPILOT01,1130,01-701-1130,Placebo,0,Placebo,0,2014-02-15,2014-08-16,84,>80,3,WHITE,1,M,Y,,Y,Baseline,0,-6,2014-02-09,SCREENING 1,1,,Aspartate Aminotransferase (U/L),AST,2,CHEM,24,24,11,36,2.18181818181818,0.666666666666667,2.18181818181818,0.666666666666667,Y,,NA,R2A1HI > 1.5,N,0
CDISCPILOT01,1130,01-701-1130,Placebo,0,Placebo,0,2014-02-15,2014-08-16,84,>80,3,WHITE,1,M,Y,,Y,Baseline,0,-6,2014-02-09,SCREENING 1,1,,Bilirubin (umol/L),BILI,3,CHEM,8.55,8.55,3,21,2.85,0.407142857142857,2.85,0.407142857142857,Y,,NA,R2A1HI > 1.5,N,0
CDISCPILOT01,1130,01-701-1130,Placebo,0,Placebo,0,2014-02-15,2014-08-16,84,>80,3,WHITE,1,M,Y,,Y,Baseline,0,NA,NA,,NA,DERIVED,Bilirubin 1.5 x ULN,BILIHY,4,HYLAW,0,0,NA,NA,NA,NA,NA,NA,Y,Normal to Normal,1,,,NA
CDISCPILOT01,1130,01-701-1130,Placebo,0,Placebo,0,2014-02-15,2014-08-16,84,>80,3,WHITE,1,M,Y,,Y,Baseline,0,NA,NA,,NA,DERIVED,Transaminase 1.5 x ULN,TRANSHY,5,HYLAW,0,0,NA,NA,NA,NA,NA,NA,Y,Normal to Normal,1,,,NA
CDISCPILOT01,1130,01-701-1130,Placebo,0,Placebo,0,2014-02-15,2014-08-16,84,>80,3,WHITE,1,M,Y,,Y,Baseline,0,NA,NA,,NA,DERIVED,Total Bili 1.5 x ULN and Transaminase 1.5 x ULN,HYLAW,6,HYLAW,0,0,NA,NA,NA,NA,NA,NA,Y,Normal to Normal,1,,,NA
CDISCPILOT01,1130,01-701-1130,Placebo,0,Placebo,0,2014-02-15,2014-08-16,84,>80,3,WHITE,1,M,Y,,Y,Week 2,2,15,2014-03-01,WEEK 2,4,,Alanine Aminotransferase (U/L),ALT,1,CHEM,14,15,6,35,2.33333333333333,0.4,2.5,0.428571428571429,,,NA,R2A1HI > 1.5,N,0
CDISCPILOT01,1130,01-701-1130,Placebo,0,Placebo,0,2014-02-15,2014-08-16,84,>80,3,WHITE,1,M,Y,,Y,Week 2,2,15,2014-03-01,WEEK 2,4,,Aspartate Aminotransferase (U/L),AST,2,CHEM,26,24,11,36,2.36363636363636,0.722222222222222,2.18181818181818,0.666666666666667,,,NA,R2A1HI > 1.5,N,0
CDISCPILOT01,1130,01-701-1130,Placebo,0,Placebo,0,2014-02-15,2014-08-16,84,>80,3,WHITE,1,M,Y,,Y,Week 2,2,15,2014-03-01,WEEK 2,4,,Bilirubin (umol/L),BILI,3,CHEM,10.26,8.55,3,21,3.42,0.488571428571429,2.85,0.407142857142857,,,NA,R2A1HI > 1.5,N,0
CDISCPILOT01,1130,01-701-1130,Placebo,0,Placebo,0,2014-02-15,2014-08-16,84,>80,3,WHITE,1,M,Y,,Y,Week 2,2,NA,NA,,NA,DERIVED,Bilirubin 1.5 x ULN,BILIHY,4,HYLAW,0,0,NA,NA,NA,NA,NA,NA,,Normal to Normal,1,,,NA
CDISCPILOT01,1130,01-701-1130,Placebo,0,Placebo,0,2014-02-15,2014-08-16,84,>80,3,WHITE,1,M,Y,,Y,Week 2,2,NA,NA,,NA,DERIVED,Transaminase 1.5 x ULN,TRANSHY,5,HYLAW,0,0,NA,NA,NA,NA,NA,NA,,Normal to Normal,1,,,NA
CDISCPILOT01,1130,01-701-1130,Placebo,0,Placebo,0,2014-02-15,2014-08-16,84,>80,3,WHITE,1,M,Y,,Y,Week 2,2,NA,NA,,NA,DERIVED,Total Bili 1.5 x ULN and Transaminase 1.5 x ULN,HYLAW,6,HYLAW,0,0,NA,NA,NA,NA,NA,NA,,Normal to Normal,1,,,NA
CDISCPILOT01,1130,01-701-1130,Placebo,0,Placebo,0,2014-02-15,2014-08-16,84,>80,3,WHITE,1,M,Y,,Y,Week 4,4,29,2014-03-15,WEEK 4,5,,Alanine Aminotransferase (U/L),ALT,1,CHEM,18,15,6,35,3,0.514285714285714,2.5,0.428571428571429,,,NA,R2A1HI > 1.5,N,0
CDISCPILOT01,1130,01-701-1130,Placebo,0,Placebo,0,2014-02-15,2014-08-16,84,>80,3,WHITE,1,M,Y,,Y,Week 4,4,29,2014-03-15,WEEK 4,5,,Aspartate Aminotransferase (U/L),AST,2,CHEM,25,24,11,36,2.27272727272727,0.694444444444444,2.18181818181818,0.666666666666667,,,NA,R2A1HI > 1.5,N,0
CDISCPILOT01,1130,01-701-1130,Placebo,0,Placebo,0,2014-02-15,2014-08-16,84,>80,3,WHITE,1,M,Y,,Y,Week 4,4,29,2014-03-15,WEEK 4,5,,Bilirubin (umol/L),BILI,3,CHEM,5.13,8.55,3,21,1.71,0.244285714285714,2.85,0.407142857142857,,,NA,R2A1HI > 1.5,N,0
CDISCPILOT01,1130,01-701-1130,Placebo,0,Placebo,0,2014-02-15,2014-08-16,84,>80,3,WHITE,1,M,Y,,Y,Week 4,4,NA,NA,,NA,DERIVED,Bilirubin 1.5 x ULN,BILIHY,4,HYLAW,0,0,NA,NA,NA,NA,NA,NA,,Normal to Normal,1,,,NA
CDISCPILOT01,1130,01-701-1130,Placebo,0,Placebo,0,2014-02-15,2014-08-16,84,>80,3,WHITE,1,M,Y,,Y,Week 4,4,NA,NA,,NA,DERIVED,Transaminase 1.5 x ULN,TRANSHY,5,HYLAW,0,0,NA,NA,NA,NA,NA,NA,,Normal to Normal,1,,,NA
CDISCPILOT01,1130,01-701-1130,Placebo,0,Placebo,0,2014-02-15,2014-08-16,84,>80,3,WHITE,1,M,Y,,Y,Week 4,4,NA,NA,,NA,DERIVED,Total Bili 1.5 x ULN and Transaminase 1.5 x ULN,HYLAW,6,HYLAW,0,0,NA,NA,NA,NA,NA,NA,,Normal to Normal,1,,,NA
CDISCPILOT01,1130,01-701-1130,Placebo,0,Placebo,0,2014-02-15,2014-08-16,84,>80,3,WHITE,1,M,Y,,Y,Week 6,6,43,2014-03-29,WEEK 6,7,,Alanine Aminotransferase (U/L),ALT,1,CHEM,13,15,6,35,2.16666666666667,0.371428571428571,2.5,0.428571428571429,,,NA,R2A1HI > 1.5,N,0
CDISCPILOT01,1130,01-701-1130,Placebo,0,Placebo,0,2014-02-15,2014-08-16,84,>80,3,WHITE,1,M,Y,,Y,Week 6,6,43,2014-03-29,WEEK 6,7,,Aspartate Aminotransferase (U/L),AST,2,CHEM,19,24,11,36,1.72727272727273,0.527777777777778,2.18181818181818,0.666666666666667,,,NA,R2A1HI > 1.5,N,0
CDISCPILOT01,1130,01-701-1130,Placebo,0,Placebo,0,2014-02-15,2014-08-16,84,>80,3,WHITE,1,M,Y,,Y,Week 6,6,43,2014-03-29,WEEK 6,7,,Bilirubin (umol/L),BILI,3,CHEM,6.84,8.55,3,21,2.28,0.325714285714286,2.85,0.407142857142857,,,NA,R2A1HI > 1.5,N,0
CDISCPILOT01,1130,01-701-1130,Placebo,0,Placebo,0,2014-02-15,2014-08-16,84,>80,3,WHITE,1,M,Y,,Y,Week 6,6,NA,NA,,NA,DERIVED,Bilirubin 1.5 x ULN,BILIHY,4,HYLAW,0,0,NA,NA,NA,NA,NA,NA,,Normal to Normal,1,,,NA
CDISCPILOT01,1130,01-701-1130,Placebo,0,Placebo,0,2014-02-15,2014-08-16,84,>80,3,WHITE,1,M,Y,,Y,Week 6,6,NA,NA,,NA,DERIVED,Transaminase 1.5 x ULN,TRANSHY,5,HYLAW,0,0,NA,NA,NA,NA,NA,NA,,Normal to Normal,1,,,NA
CDISCPILOT01,1130,01-701-1130,Placebo,0,Placebo,0,2014-02-15,2014-08-16,84,>80,3,WHITE,1,M,Y,,Y,Week 6,6,NA,NA,,NA,DERIVED,Total Bili 1.5 x ULN and Transaminase 1.5 x ULN,HYLAW,6,HYLAW,0,0,NA,NA,NA,NA,NA,NA,,Normal to Normal,1,,,NA
CDISCPILOT01,1130,01-701-1130,Placebo,0,Placebo,0,2014-02-15,2014-08-16,84,>80,3,WHITE,1,M,Y,,Y,Week 8,8,57,2014-04-12,WEEK 8,8,,Alanine Aminotransferase (U/L),ALT,1,CHEM,10,15,6,35,1.66666666666667,0.285714285714286,2.5,0.428571428571429,,,NA,R2A1HI > 1.5,N,0
CDISCPILOT01,1130,01-701-1130,Placebo,0,Placebo,0,2014-02-15,2014-08-16,84,>80,3,WHITE,1,M,Y,,Y,Week 8,8,57,2014-04-12,WEEK 8,8,,Aspartate Aminotransferase (U/L),AST,2,CHEM,18,24,11,36,1.63636363636364,0.5,2.18181818181818,0.666666666666667,,,NA,R2A1HI > 1.5,N,0
CDISCPILOT01,1130,01-701-1130,Placebo,0,Placebo,0,2014-02-15,2014-08-16,84,>80,3,WHITE,1,M,Y,,Y,Week 8,8,57,2014-04-12,WEEK 8,8,,Bilirubin (umol/L),BILI,3,CHEM,10.26,8.55,3,21,3.42,0.488571428571429,2.85,0.407142857142857,,,NA,R2A1HI > 1.5,N,0
CDISCPILOT01,1130,01-701-1130,Placebo,0,Placebo,0,2014-02-15,2014-08-16,84,>80,3,WHITE,1,M,Y,,Y,Week 8,8,NA,NA,,NA,DERIVED,Bilirubin 1.5 x ULN,BILIHY,4,HYLAW,0,0,NA,NA,NA,NA,NA,NA,,Normal to Normal,1,,,NA
CDISCPILOT01,1130,01-701-1130,Placebo,0,Placebo,0,2014-02-15,2014-08-16,84,>80,3,WHITE,1,M,Y,,Y,Week 8,8,NA,NA,,NA,DERIVED,Transaminase 1.5 x ULN,TRANSHY,5,HYLAW,0,0,NA,NA,NA,NA,NA,NA,,Normal to Normal,1,,,NA
CDISCPILOT01,1130,01-701-1130,Placebo,0,Placebo,0,2014-02-15,2014-08-16,84,>80,3,WHITE,1,M,Y,,Y,Week 8,8,NA,NA,,NA,DERIVED,Total Bili 1.5 x ULN and Transaminase 1.5 x ULN,HYLAW,6,HYLAW,0,0,NA,NA,NA,NA,NA,NA,,Normal to Normal,1,,,NA
CDISCPILOT01,1130,01-701-1130,Placebo,0,Placebo,0,2014-02-15,2014-08-16,84,>80,3,WHITE,1,M,Y,,Y,Week 12,12,91,2014-05-16,WEEK 12,9,,Alanine Aminotransferase (U/L),ALT,1,CHEM,13,15,6,35,2.16666666666667,0.371428571428571,2.5,0.428571428571429,,,NA,R2A1HI > 1.5,N,0
CDISCPILOT01,1130,01-701-1130,Placebo,0,Placebo,0,2014-02-15,2014-08-16,84,>80,3,WHITE,1,M,Y,,Y,Week 12,12,91,2014-05-16,WEEK 12,9,,Aspartate Aminotransferase (U/L),AST,2,CHEM,21,24,11,36,1.90909090909091,0.583333333333333,2.18181818181818,0.666666666666667,,,NA,R2A1HI > 1.5,N,0
CDISCPILOT01,1130,01-701-1130,Placebo,0,Placebo,0,2014-02-15,2014-08-16,84,>80,3,WHITE,1,M,Y,,Y,Week 12,12,91,2014-05-16,WEEK 12,9,,Bilirubin (umol/L),BILI,3,CHEM,8.55,8.55,3,21,2.85,0.407142857142857,2.85,0.407142857142857,,,NA,R2A1HI > 1.5,N,0
CDISCPILOT01,1130,01-701-1130,Placebo,0,Placebo,0,2014-02-15,2014-08-16,84,>80,3,WHITE,1,M,Y,,Y,Week 12,12,NA,NA,,NA,DERIVED,Bilirubin 1.5 x ULN,BILIHY,4,HYLAW,0,0,NA,NA,NA,NA,NA,NA,,Normal to Normal,1,,,NA
CDISCPILOT01,1130,01-701-1130,Placebo,0,Placebo,0,2014-02-15,2014-08-16,84,>80,3,WHITE,1,M,Y,,Y,Week 12,12,NA,NA,,NA,DERIVED,Transaminase 1.5 x ULN,TRANSHY,5,HYLAW,0,0,NA,NA,NA,NA,NA,NA,,Normal to Normal,1,,,NA
CDISCPILOT01,1130,01-701-1130,Placebo,0,Placebo,0,2014-02-15,2014-08-16,84,>80,3,WHITE,1,M,Y,,Y,Week 12,12,NA,NA,,NA,DERIVED,Total Bili 1.5 x ULN and Transaminase 1.5 x ULN,HYLAW,6,HYLAW,0,0,NA,NA,NA,NA,NA,NA,,Normal to Normal,1,,,NA
CDISCPILOT01,1130,01-701-1130,Placebo,0,Placebo,0,2014-02-15,2014-08-16,84,>80,3,WHITE,1,M,Y,,Y,Week 16,16,113,2014-06-07,WEEK 16,10,,Alanine Aminotransferase (U/L),ALT,1,CHEM,12,15,6,35,2,0.342857142857143,2.5,0.428571428571429,,,NA,R2A1HI > 1.5,N,0
CDISCPILOT01,1130,01-701-1130,Placebo,0,Placebo,0,2014-02-15,2014-08-16,84,>80,3,WHITE,1,M,Y,,Y,Week 16,16,113,2014-06-07,WEEK 16,10,,Aspartate Aminotransferase (U/L),AST,2,CHEM,19,24,11,36,1.72727272727273,0.527777777777778,2.18181818181818,0.666666666666667,,,NA,R2A1HI > 1.5,N,0
CDISCPILOT01,1130,01-701-1130,Placebo,0,Placebo,0,2014-02-15,2014-08-16,84,>80,3,WHITE,1,M,Y,,Y,Week 16,16,113,2014-06-07,WEEK 16,10,,Bilirubin (umol/L),BILI,3,CHEM,10.26,8.55,3,21,3.42,0.488571428571429,2.85,0.407142857142857,,,NA,R2A1HI > 1.5,N,0
CDISCPILOT01,1130,01-701-1130,Placebo,0,Placebo,0,2014-02-15,2014-08-16,84,>80,3,WHITE,1,M,Y,,Y,Week 16,16,NA,NA,,NA,DERIVED,Bilirubin 1.5 x ULN,BILIHY,4,HYLAW,0,0,NA,NA,NA,NA,NA,NA,,Normal to Normal,1,,,NA
CDISCPILOT01,1130,01-701-1130,Placebo,0,Placebo,0,2014-02-15,2014-08-16,84,>80,3,WHITE,1,M,Y,,Y,Week 16,16,NA,NA,,NA,DERIVED,Transaminase 1.5 x ULN,TRANSHY,5,HYLAW,0,0,NA,NA,NA,NA,NA,NA,,Normal to Normal,1,,,NA
CDISCPILOT01,1130,01-701-1130,Placebo,0,Placebo,0,2014-02-15,2014-08-16,84,>80,3,WHITE,1,M,Y,,Y,Week 16,16,NA,NA,,NA,DERIVED,Total Bili 1.5 x ULN and Transaminase 1.5 x ULN,HYLAW,6,HYLAW,0,0,NA,NA,NA,NA,NA,NA,,Normal to Normal,1,,,NA
CDISCPILOT01,1130,01-701-1130,Placebo,0,Placebo,0,2014-02-15,2014-08-16,84,>80,3,WHITE,1,M,Y,,Y,Week 20,20,138,2014-07-02,WEEK 20,11,,Alanine Aminotransferase (U/L),ALT,1,CHEM,11,15,6,35,1.83333333333333,0.314285714285714,2.5,0.428571428571429,,,NA,R2A1HI > 1.5,N,0
CDISCPILOT01,1130,01-701-1130,Placebo,0,Placebo,0,2014-02-15,2014-08-16,84,>80,3,WHITE,1,M,Y,,Y,Week 20,20,138,2014-07-02,WEEK 20,11,,Aspartate Aminotransferase (U/L),AST,2,CHEM,19,24,11,36,1.72727272727273,0.527777777777778,2.18181818181818,0.666666666666667,,,NA,R2A1HI > 1.5,N,0
CDISCPILOT01,1130,01-701-1130,Placebo,0,Placebo,0,2014-02-15,2014-08-16,84,>80,3,WHITE,1,M,Y,,Y,Week 20,20,138,2014-07-02,WEEK 20,11,,Bilirubin (umol/L),BILI,3,CHEM,6.84,8.55,3,21,2.28,0.325714285714286,2.85,0.407142857142857,,,NA,R2A1HI > 1.5,N,0
CDISCPILOT01,1130,01-701-1130,Placebo,0,Placebo,0,2014-02-15,2014-08-16,84,>80,3,WHITE,1,M,Y,,Y,Week 20,20,NA,NA,,NA,DERIVED,Bilirubin 1.5 x ULN,BILIHY,4,HYLAW,0,0,NA,NA,NA,NA,NA,NA,,Normal to Normal,1,,,NA
CDISCPILOT01,1130,01-701-1130,Placebo,0,Placebo,0,2014-02-15,2014-08-16,84,>80,3,WHITE,1,M,Y,,Y,Week 20,20,NA,NA,,NA,DERIVED,Transaminase 1.5 x ULN,TRANSHY,5,HYLAW,0,0,NA,NA,NA,NA,NA,NA,,Normal to Normal,1,,,NA
CDISCPILOT01,1130,01-701-1130,Placebo,0,Placebo,0,2014-02-15,2014-08-16,84,>80,3,WHITE,1,M,Y,,Y,Week 20,20,NA,NA,,NA,DERIVED,Total Bili 1.5 x ULN and Transaminase 1.5 x ULN,HYLAW,6,HYLAW,0,0,NA,NA,NA,NA,NA,NA,,Normal to Normal,1,,,NA
CDISCPILOT01,1130,01-701-1130,Placebo,0,Placebo,0,2014-02-15,2014-08-16,84,>80,3,WHITE,1,M,Y,,Y,Week 24,24,169,2014-08-02,WEEK 24,12,,Alanine Aminotransferase (U/L),ALT,1,CHEM,13,15,6,35,2.16666666666667,0.371428571428571,2.5,0.428571428571429,,,NA,R2A1HI > 1.5,N,0
CDISCPILOT01,1130,01-701-1130,Placebo,0,Placebo,0,2014-02-15,2014-08-16,84,>80,3,WHITE,1,M,Y,,Y,Week 24,24,169,2014-08-02,WEEK 24,12,,Aspartate Aminotransferase (U/L),AST,2,CHEM,22,24,11,36,2,0.611111111111111,2.18181818181818,0.666666666666667,,,NA,R2A1HI > 1.5,N,0
CDISCPILOT01,1130,01-701-1130,Placebo,0,Placebo,0,2014-02-15,2014-08-16,84,>80,3,WHITE,1,M,Y,,Y,Week 24,24,169,2014-08-02,WEEK 24,12,,Bilirubin (umol/L),BILI,3,CHEM,11.97,8.55,3,21,3.99,0.57,2.85,0.407142857142857,,,NA,R2A1HI > 1.5,N,0
CDISCPILOT01,1130,01-701-1130,Placebo,0,Placebo,0,2014-02-15,2014-08-16,84,>80,3,WHITE,1,M,Y,,Y,Week 24,24,NA,NA,,NA,DERIVED,Bilirubin 1.5 x ULN,BILIHY,4,HYLAW,0,0,NA,NA,NA,NA,NA,NA,,Normal to Normal,1,,,NA
CDISCPILOT01,1130,01-701-1130,Placebo,0,Placebo,0,2014-02-15,2014-08-16,84,>80,3,WHITE,1,M,Y,,Y,Week 24,24,NA,NA,,NA,DERIVED,Transaminase 1.5 x ULN,TRANSHY,5,HYLAW,0,0,NA,NA,NA,NA,NA,NA,,Normal to Normal,1,,,NA
CDISCPILOT01,1130,01-701-1130,Placebo,0,Placebo,0,2014-02-15,2014-08-16,84,>80,3,WHITE,1,M,Y,,Y,Week 24,24,NA,NA,,NA,DERIVED,Total Bili 1.5 x ULN and Transaminase 1.5 x ULN,HYLAW,6,HYLAW,0,0,NA,NA,NA,NA,NA,NA,,Normal to Normal,1,,,NA
CDISCPILOT01,1133,01-701-1133,Xanomeline High Dose,81,Xanomeline High Dose,81,2012-10-28,2013-04-28,81,>80,3,WHITE,1,F,Y,,Y,Baseline,0,-5,2012-10-23,SCREENING 1,1,,Alanine Aminotransferase (U/L),ALT,1,CHEM,23,23,6,32,3.83333333333333,0.71875,3.83333333333333,0.71875,Y,,NA,R2A1HI > 1.5,N,0
CDISCPILOT01,1133,01-701-1133,Xanomeline High Dose,81,Xanomeline High Dose,81,2012-10-28,2013-04-28,81,>80,3,WHITE,1,F,Y,,Y,Baseline,0,-5,2012-10-23,SCREENING 1,1,,Aspartate Aminotransferase (U/L),AST,2,CHEM,27,27,9,34,3,0.794117647058823,3,0.794117647058823,Y,,NA,R2A1HI > 1.5,N,0
CDISCPILOT01,1133,01-701-1133,Xanomeline High Dose,81,Xanomeline High Dose,81,2012-10-28,2013-04-28,81,>80,3,WHITE,1,F,Y,,Y,Baseline,0,-5,2012-10-23,SCREENING 1,1,,Bilirubin (umol/L),BILI,3,CHEM,15.39,15.39,3,21,5.13,0.732857142857143,5.13,0.732857142857143,Y,,NA,R2A1HI > 1.5,N,0
CDISCPILOT01,1133,01-701-1133,Xanomeline High Dose,81,Xanomeline High Dose,81,2012-10-28,2013-04-28,81,>80,3,WHITE,1,F,Y,,Y,Baseline,0,NA,NA,,NA,DERIVED,Bilirubin 1.5 x ULN,BILIHY,4,HYLAW,0,0,NA,NA,NA,NA,NA,NA,Y,Normal to Normal,1,,,NA
CDISCPILOT01,1133,01-701-1133,Xanomeline High Dose,81,Xanomeline High Dose,81,2012-10-28,2013-04-28,81,>80,3,WHITE,1,F,Y,,Y,Baseline,0,NA,NA,,NA,DERIVED,Transaminase 1.5 x ULN,TRANSHY,5,HYLAW,0,0,NA,NA,NA,NA,NA,NA,Y,Normal to Normal,1,,,NA
CDISCPILOT01,1133,01-701-1133,Xanomeline High Dose,81,Xanomeline High Dose,81,2012-10-28,2013-04-28,81,>80,3,WHITE,1,F,Y,,Y,Baseline,0,NA,NA,,NA,DERIVED,Total Bili 1.5 x ULN and Transaminase 1.5 x ULN,HYLAW,6,HYLAW,0,0,NA,NA,NA,NA,NA,NA,Y,Normal to Normal,1,,,NA
CDISCPILOT01,1133,01-701-1133,Xanomeline High Dose,81,Xanomeline High Dose,81,2012-10-28,2013-04-28,81,>80,3,WHITE,1,F,Y,,Y,Week 4,4,30,2012-11-26,WEEK 4,5,,Alanine Aminotransferase (U/L),ALT,1,CHEM,21,23,6,32,3.5,0.65625,3.83333333333333,0.71875,,,NA,R2A1HI > 1.5,N,0
CDISCPILOT01,1133,01-701-1133,Xanomeline High Dose,81,Xanomeline High Dose,81,2012-10-28,2013-04-28,81,>80,3,WHITE,1,F,Y,,Y,Week 4,4,30,2012-11-26,WEEK 4,5,,Aspartate Aminotransferase (U/L),AST,2,CHEM,20,27,9,34,2.22222222222222,0.588235294117647,3,0.794117647058823,,,NA,R2A1HI > 1.5,N,0
CDISCPILOT01,1133,01-701-1133,Xanomeline High Dose,81,Xanomeline High Dose,81,2012-10-28,2013-04-28,81,>80,3,WHITE,1,F,Y,,Y,Week 4,4,30,2012-11-26,WEEK 4,5,,Bilirubin (umol/L),BILI,3,CHEM,10.26,15.39,3,21,3.42,0.488571428571429,5.13,0.732857142857143,,,NA,R2A1HI > 1.5,N,0
CDISCPILOT01,1133,01-701-1133,Xanomeline High Dose,81,Xanomeline High Dose,81,2012-10-28,2013-04-28,81,>80,3,WHITE,1,F,Y,,Y,Week 4,4,NA,NA,,NA,DERIVED,Bilirubin 1.5 x ULN,BILIHY,4,HYLAW,0,0,NA,NA,NA,NA,NA,NA,,Normal to Normal,1,,,NA
CDISCPILOT01,1133,01-701-1133,Xanomeline High Dose,81,Xanomeline High Dose,81,2012-10-28,2013-04-28,81,>80,3,WHITE,1,F,Y,,Y,Week 4,4,NA,NA,,NA,DERIVED,Transaminase 1.5 x ULN,TRANSHY,5,HYLAW,0,0,NA,NA,NA,NA,NA,NA,,Normal to Normal,1,,,NA
CDISCPILOT01,1133,01-701-1133,Xanomeline High Dose,81,Xanomeline High Dose,81,2012-10-28,2013-04-28,81,>80,3,WHITE,1,F,Y,,Y,Week 4,4,NA,NA,,NA,DERIVED,Total Bili 1.5 x ULN and Transaminase 1.5 x ULN,HYLAW,6,HYLAW,0,0,NA,NA,NA,NA,NA,NA,,Normal to Normal,1,,,NA
CDISCPILOT01,1133,01-701-1133,Xanomeline High Dose,81,Xanomeline High Dose,81,2012-10-28,2013-04-28,81,>80,3,WHITE,1,F,Y,,Y,Week 6,6,45,2012-12-11,WEEK 6,7,,Alanine Aminotransferase (U/L),ALT,1,CHEM,15,23,6,32,2.5,0.46875,3.83333333333333,0.71875,,,NA,R2A1HI > 1.5,N,0
CDISCPILOT01,1133,01-701-1133,Xanomeline High Dose,81,Xanomeline High Dose,81,2012-10-28,2013-04-28,81,>80,3,WHITE,1,F,Y,,Y,Week 6,6,45,2012-12-11,WEEK 6,7,,Aspartate Aminotransferase (U/L),AST,2,CHEM,20,27,9,34,2.22222222222222,0.588235294117647,3,0.794117647058823,,,NA,R2A1HI > 1.5,N,0
CDISCPILOT01,1133,01-701-1133,Xanomeline High Dose,81,Xanomeline High Dose,81,2012-10-28,2013-04-28,81,>80,3,WHITE,1,F,Y,,Y,Week 6,6,45,2012-12-11,WEEK 6,7,,Bilirubin (umol/L),BILI,3,CHEM,11.97,15.39,3,21,3.99,0.57,5.13,0.732857142857143,,,NA,R2A1HI > 1.5,N,0
CDISCPILOT01,1133,01-701-1133,Xanomeline High Dose,81,Xanomeline High Dose,81,2012-10-28,2013-04-28,81,>80,3,WHITE,1,F,Y,,Y,Week 6,6,NA,NA,,NA,DERIVED,Bilirubin 1.5 x ULN,BILIHY,4,HYLAW,0,0,NA,NA,NA,NA,NA,NA,,Normal to Normal,1,,,NA
CDISCPILOT01,1133,01-701-1133,Xanomeline High Dose,81,Xanomeline High Dose,81,2012-10-28,2013-04-28,81,>80,3,WHITE,1,F,Y,,Y,Week 6,6,NA,NA,,NA,DERIVED,Transaminase 1.5 x ULN,TRANSHY,5,HYLAW,0,0,NA,NA,NA,NA,NA,NA,,Normal to Normal,1,,,NA
CDISCPILOT01,1133,01-701-1133,Xanomeline High Dose,81,Xanomeline High Dose,81,2012-10-28,2013-04-28,81,>80,3,WHITE,1,F,Y,,Y,Week 6,6,NA,NA,,NA,DERIVED,Total Bili 1.5 x ULN and Transaminase 1.5 x ULN,HYLAW,6,HYLAW,0,0,NA,NA,NA,NA,NA,NA,,Normal to Normal,1,,,NA
CDISCPILOT01,1133,01-701-1133,Xanomeline High Dose,81,Xanomeline High Dose,81,2012-10-28,2013-04-28,81,>80,3,WHITE,1,F,Y,,Y,Week 8,8,58,2012-12-24,WEEK 8,8,,Alanine Aminotransferase (U/L),ALT,1,CHEM,16,23,6,32,2.66666666666667,0.5,3.83333333333333,0.71875,,,NA,R2A1HI > 1.5,N,0
CDISCPILOT01,1133,01-701-1133,Xanomeline High Dose,81,Xanomeline High Dose,81,2012-10-28,2013-04-28,81,>80,3,WHITE,1,F,Y,,Y,Week 8,8,58,2012-12-24,WEEK 8,8,,Aspartate Aminotransferase (U/L),AST,2,CHEM,19,27,9,34,2.11111111111111,0.558823529411765,3,0.794117647058823,,,NA,R2A1HI > 1.5,N,0
CDISCPILOT01,1133,01-701-1133,Xanomeline High Dose,81,Xanomeline High Dose,81,2012-10-28,2013-04-28,81,>80,3,WHITE,1,F,Y,,Y,Week 8,8,58,2012-12-24,WEEK 8,8,,Bilirubin (umol/L),BILI,3,CHEM,10.26,15.39,3,21,3.42,0.488571428571429,5.13,0.732857142857143,,,NA,R2A1HI > 1.5,N,0
CDISCPILOT01,1133,01-701-1133,Xanomeline High Dose,81,Xanomeline High Dose,81,2012-10-28,2013-04-28,81,>80,3,WHITE,1,F,Y,,Y,Week 8,8,NA,NA,,NA,DERIVED,Bilirubin 1.5 x ULN,BILIHY,4,HYLAW,0,0,NA,NA,NA,NA,NA,NA,,Normal to Normal,1,,,NA
CDISCPILOT01,1133,01-701-1133,Xanomeline High Dose,81,Xanomeline High Dose,81,2012-10-28,2013-04-28,81,>80,3,WHITE,1,F,Y,,Y,Week 8,8,NA,NA,,NA,DERIVED,Transaminase 1.5 x ULN,TRANSHY,5,HYLAW,0,0,NA,NA,NA,NA,NA,NA,,Normal to Normal,1,,,NA
CDISCPILOT01,1133,01-701-1133,Xanomeline High Dose,81,Xanomeline High Dose,81,2012-10-28,2013-04-28,81,>80,3,WHITE,1,F,Y,,Y,Week 8,8,NA,NA,,NA,DERIVED,Total Bili 1.5 x ULN and Transaminase 1.5 x ULN,HYLAW,6,HYLAW,0,0,NA,NA,NA,NA,NA,NA,,Normal to Normal,1,,,NA
CDISCPILOT01,1133,01-701-1133,Xanomeline High Dose,81,Xanomeline High Dose,81,2012-10-28,2013-04-28,81,>80,3,WHITE,1,F,Y,,Y,Week 12,12,87,2013-01-22,WEEK 12,9,,Alanine Aminotransferase (U/L),ALT,1,CHEM,16,23,6,32,2.66666666666667,0.5,3.83333333333333,0.71875,,,NA,R2A1HI > 1.5,N,0
CDISCPILOT01,1133,01-701-1133,Xanomeline High Dose,81,Xanomeline High Dose,81,2012-10-28,2013-04-28,81,>80,3,WHITE,1,F,Y,,Y,Week 12,12,87,2013-01-22,WEEK 12,9,,Aspartate Aminotransferase (U/L),AST,2,CHEM,19,27,9,34,2.11111111111111,0.558823529411765,3,0.794117647058823,,,NA,R2A1HI > 1.5,N,0
CDISCPILOT01,1133,01-701-1133,Xanomeline High Dose,81,Xanomeline High Dose,81,2012-10-28,2013-04-28,81,>80,3,WHITE,1,F,Y,,Y,Week 12,12,87,2013-01-22,WEEK 12,9,,Bilirubin (umol/L),BILI,3,CHEM,10.26,15.39,3,21,3.42,0.488571428571429,5.13,0.732857142857143,,,NA,R2A1HI > 1.5,N,0
CDISCPILOT01,1133,01-701-1133,Xanomeline High Dose,81,Xanomeline High Dose,81,2012-10-28,2013-04-28,81,>80,3,WHITE,1,F,Y,,Y,Week 12,12,NA,NA,,NA,DERIVED,Bilirubin 1.5 x ULN,BILIHY,4,HYLAW,0,0,NA,NA,NA,NA,NA,NA,,Normal to Normal,1,,,NA
CDISCPILOT01,1133,01-701-1133,Xanomeline High Dose,81,Xanomeline High Dose,81,2012-10-28,2013-04-28,81,>80,3,WHITE,1,F,Y,,Y,Week 12,12,NA,NA,,NA,DERIVED,Transaminase 1.5 x ULN,TRANSHY,5,HYLAW,0,0,NA,NA,NA,NA,NA,NA,,Normal to Normal,1,,,NA
CDISCPILOT01,1133,01-701-1133,Xanomeline High Dose,81,Xanomeline High Dose,81,2012-10-28,2013-04-28,81,>80,3,WHITE,1,F,Y,,Y,Week 12,12,NA,NA,,NA,DERIVED,Total Bili 1.5 x ULN and Transaminase 1.5 x ULN,HYLAW,6,HYLAW,0,0,NA,NA,NA,NA,NA,NA,,Normal to Normal,1,,,NA
CDISCPILOT01,1133,01-701-1133,Xanomeline High Dose,81,Xanomeline High Dose,81,2012-10-28,2013-04-28,81,>80,3,WHITE,1,F,Y,,Y,Week 16,16,114,2013-02-18,WEEK 16,10,,Alanine Aminotransferase (U/L),ALT,1,CHEM,15,23,6,32,2.5,0.46875,3.83333333333333,0.71875,,,NA,R2A1HI > 1.5,N,0
CDISCPILOT01,1133,01-701-1133,Xanomeline High Dose,81,Xanomeline High Dose,81,2012-10-28,2013-04-28,81,>80,3,WHITE,1,F,Y,,Y,Week 16,16,114,2013-02-18,WEEK 16,10,,Aspartate Aminotransferase (U/L),AST,2,CHEM,19,27,9,34,2.11111111111111,0.558823529411765,3,0.794117647058823,,,NA,R2A1HI > 1.5,N,0
CDISCPILOT01,1133,01-701-1133,Xanomeline High Dose,81,Xanomeline High Dose,81,2012-10-28,2013-04-28,81,>80,3,WHITE,1,F,Y,,Y,Week 16,16,114,2013-02-18,WEEK 16,10,,Bilirubin (umol/L),BILI,3,CHEM,13.68,15.39,3,21,4.56,0.651428571428571,5.13,0.732857142857143,,,NA,R2A1HI > 1.5,N,0
CDISCPILOT01,1133,01-701-1133,Xanomeline High Dose,81,Xanomeline High Dose,81,2012-10-28,2013-04-28,81,>80,3,WHITE,1,F,Y,,Y,Week 16,16,NA,NA,,NA,DERIVED,Bilirubin 1.5 x ULN,BILIHY,4,HYLAW,0,0,NA,NA,NA,NA,NA,NA,,Normal to Normal,1,,,NA
CDISCPILOT01,1133,01-701-1133,Xanomeline High Dose,81,Xanomeline High Dose,81,2012-10-28,2013-04-28,81,>80,3,WHITE,1,F,Y,,Y,Week 16,16,NA,NA,,NA,DERIVED,Transaminase 1.5 x ULN,TRANSHY,5,HYLAW,0,0,NA,NA,NA,NA,NA,NA,,Normal to Normal,1,,,NA
CDISCPILOT01,1133,01-701-1133,Xanomeline High Dose,81,Xanomeline High Dose,81,2012-10-28,2013-04-28,81,>80,3,WHITE,1,F,Y,,Y,Week 16,16,NA,NA,,NA,DERIVED,Total Bili 1.5 x ULN and Transaminase 1.5 x ULN,HYLAW,6,HYLAW,0,0,NA,NA,NA,NA,NA,NA,,Normal to Normal,1,,,NA
CDISCPILOT01,1133,01-701-1133,Xanomeline High Dose,81,Xanomeline High Dose,81,2012-10-28,2013-04-28,81,>80,3,WHITE,1,F,Y,,Y,Week 20,20,142,2013-03-18,WEEK 20,11,,Alanine Aminotransferase (U/L),ALT,1,CHEM,19,23,6,32,3.16666666666667,0.59375,3.83333333333333,0.71875,,,NA,R2A1HI > 1.5,N,0
CDISCPILOT01,1133,01-701-1133,Xanomeline High Dose,81,Xanomeline High Dose,81,2012-10-28,2013-04-28,81,>80,3,WHITE,1,F,Y,,Y,Week 20,20,142,2013-03-18,WEEK 20,11,,Aspartate Aminotransferase (U/L),AST,2,CHEM,21,27,9,34,2.33333333333333,0.617647058823529,3,0.794117647058823,,,NA,R2A1HI > 1.5,N,0
CDISCPILOT01,1133,01-701-1133,Xanomeline High Dose,81,Xanomeline High Dose,81,2012-10-28,2013-04-28,81,>80,3,WHITE,1,F,Y,,Y,Week 20,20,142,2013-03-18,WEEK 20,11,,Bilirubin (umol/L),BILI,3,CHEM,10.26,15.39,3,21,3.42,0.488571428571429,5.13,0.732857142857143,,,NA,R2A1HI > 1.5,N,0
CDISCPILOT01,1133,01-701-1133,Xanomeline High Dose,81,Xanomeline High Dose,81,2012-10-28,2013-04-28,81,>80,3,WHITE,1,F,Y,,Y,Week 20,20,NA,NA,,NA,DERIVED,Bilirubin 1.5 x ULN,BILIHY,4,HYLAW,0,0,NA,NA,NA,NA,NA,NA,,Normal to Normal,1,,,NA
CDISCPILOT01,1133,01-701-1133,Xanomeline High Dose,81,Xanomeline High Dose,81,2012-10-28,2013-04-28,81,>80,3,WHITE,1,F,Y,,Y,Week 20,20,NA,NA,,NA,DERIVED,Transaminase 1.5 x ULN,TRANSHY,5,HYLAW,0,0,NA,NA,NA,NA,NA,NA,,Normal to Normal,1,,,NA
CDISCPILOT01,1133,01-701-1133,Xanomeline High Dose,81,Xanomeline High Dose,81,2012-10-28,2013-04-28,81,>80,3,WHITE,1,F,Y,,Y,Week 20,20,NA,NA,,NA,DERIVED,Total Bili 1.5 x ULN and Transaminase 1.5 x ULN,HYLAW,6,HYLAW,0,0,NA,NA,NA,NA,NA,NA,,Normal to Normal,1,,,NA
CDISCPILOT01,1133,01-701-1133,Xanomeline High Dose,81,Xanomeline High Dose,81,2012-10-28,2013-04-28,81,>80,3,WHITE,1,F,Y,,Y,Week 24,24,173,2013-04-18,WEEK 24,12,,Alanine Aminotransferase (U/L),ALT,1,CHEM,18,23,6,32,3,0.5625,3.83333333333333,0.71875,,,NA,R2A1HI > 1.5,N,0
CDISCPILOT01,1133,01-701-1133,Xanomeline High Dose,81,Xanomeline High Dose,81,2012-10-28,2013-04-28,81,>80,3,WHITE,1,F,Y,,Y,Week 24,24,173,2013-04-18,WEEK 24,12,,Aspartate Aminotransferase (U/L),AST,2,CHEM,23,27,9,34,2.55555555555556,0.676470588235294,3,0.794117647058823,,,NA,R2A1HI > 1.5,N,0
CDISCPILOT01,1133,01-701-1133,Xanomeline High Dose,81,Xanomeline High Dose,81,2012-10-28,2013-04-28,81,>80,3,WHITE,1,F,Y,,Y,Week 24,24,173,2013-04-18,WEEK 24,12,,Bilirubin (umol/L),BILI,3,CHEM,11.97,15.39,3,21,3.99,0.57,5.13,0.732857142857143,,,NA,R2A1HI > 1.5,N,0
CDISCPILOT01,1133,01-701-1133,Xanomeline High Dose,81,Xanomeline High Dose,81,2012-10-28,2013-04-28,81,>80,3,WHITE,1,F,Y,,Y,Week 24,24,NA,NA,,NA,DERIVED,Bilirubin 1.5 x ULN,BILIHY,4,HYLAW,0,0,NA,NA,NA,NA,NA,NA,,Normal to Normal,1,,,NA
CDISCPILOT01,1133,01-701-1133,Xanomeline High Dose,81,Xanomeline High Dose,81,2012-10-28,2013-04-28,81,>80,3,WHITE,1,F,Y,,Y,Week 24,24,NA,NA,,NA,DERIVED,Transaminase 1.5 x ULN,TRANSHY,5,HYLAW,0,0,NA,NA,NA,NA,NA,NA,,Normal to Normal,1,,,NA
CDISCPILOT01,1133,01-701-1133,Xanomeline High Dose,81,Xanomeline High Dose,81,2012-10-28,2013-04-28,81,>80,3,WHITE,1,F,Y,,Y,Week 24,24,NA,NA,,NA,DERIVED,Total Bili 1.5 x ULN and Transaminase 1.5 x ULN,HYLAW,6,HYLAW,0,0,NA,NA,NA,NA,NA,NA,,Normal to Normal,1,,,NA
CDISCPILOT01,1146,01-701-1146,Xanomeline High Dose,81,Xanomeline High Dose,81,2013-05-20,2013-06-26,75,65-80,2,WHITE,1,F,N,Y,Y,Baseline,0,-13,2013-05-07,SCREENING 1,1,,Alanine Aminotransferase (U/L),ALT,1,CHEM,15,15,6,32,2.5,0.46875,2.5,0.46875,Y,,NA,R2A1HI > 1.5,N,0
CDISCPILOT01,1146,01-701-1146,Xanomeline High Dose,81,Xanomeline High Dose,81,2013-05-20,2013-06-26,75,65-80,2,WHITE,1,F,N,Y,Y,Baseline,0,-13,2013-05-07,SCREENING 1,1,,Aspartate Aminotransferase (U/L),AST,2,CHEM,14,14,9,34,1.55555555555556,0.411764705882353,1.55555555555556,0.411764705882353,Y,,NA,R2A1HI > 1.5,N,0
CDISCPILOT01,1146,01-701-1146,Xanomeline High Dose,81,Xanomeline High Dose,81,2013-05-20,2013-06-26,75,65-80,2,WHITE,1,F,N,Y,Y,Baseline,0,-13,2013-05-07,SCREENING 1,1,,Bilirubin (umol/L),BILI,3,CHEM,5.13,5.13,3,21,1.71,0.244285714285714,1.71,0.244285714285714,Y,,NA,R2A1HI > 1.5,N,0
CDISCPILOT01,1146,01-701-1146,Xanomeline High Dose,81,Xanomeline High Dose,81,2013-05-20,2013-06-26,75,65-80,2,WHITE,1,F,N,Y,Y,Baseline,0,NA,NA,,NA,DERIVED,Bilirubin 1.5 x ULN,BILIHY,4,HYLAW,0,0,NA,NA,NA,NA,NA,NA,Y,Normal to Normal,1,,,NA
CDISCPILOT01,1146,01-701-1146,Xanomeline High Dose,81,Xanomeline High Dose,81,2013-05-20,2013-06-26,75,65-80,2,WHITE,1,F,N,Y,Y,Baseline,0,NA,NA,,NA,DERIVED,Transaminase 1.5 x ULN,TRANSHY,5,HYLAW,0,0,NA,NA,NA,NA,NA,NA,Y,Normal to Normal,1,,,NA
CDISCPILOT01,1146,01-701-1146,Xanomeline High Dose,81,Xanomeline High Dose,81,2013-05-20,2013-06-26,75,65-80,2,WHITE,1,F,N,Y,Y,Baseline,0,NA,NA,,NA,DERIVED,Total Bili 1.5 x ULN and Transaminase 1.5 x ULN,HYLAW,6,HYLAW,0,0,NA,NA,NA,NA,NA,NA,Y,Normal to Normal,1,,,NA
CDISCPILOT01,1146,01-701-1146,Xanomeline High Dose,81,Xanomeline High Dose,81,2013-05-20,2013-06-26,75,65-80,2,WHITE,1,F,N,Y,Y,Week 2,2,15,2013-06-03,WEEK 2,4,,Alanine Aminotransferase (U/L),ALT,1,CHEM,14,15,6,32,2.33333333333333,0.4375,2.5,0.46875,,,NA,R2A1HI > 1.5,N,0
CDISCPILOT01,1146,01-701-1146,Xanomeline High Dose,81,Xanomeline High Dose,81,2013-05-20,2013-06-26,75,65-80,2,WHITE,1,F,N,Y,Y,Week 2,2,15,2013-06-03,WEEK 2,4,,Aspartate Aminotransferase (U/L),AST,2,CHEM,20,14,9,34,2.22222222222222,0.588235294117647,1.55555555555556,0.411764705882353,,,NA,R2A1HI > 1.5,N,0
CDISCPILOT01,1146,01-701-1146,Xanomeline High Dose,81,Xanomeline High Dose,81,2013-05-20,2013-06-26,75,65-80,2,WHITE,1,F,N,Y,Y,Week 2,2,15,2013-06-03,WEEK 2,4,,Bilirubin (umol/L),BILI,3,CHEM,6.84,5.13,3,21,2.28,0.325714285714286,1.71,0.244285714285714,,,NA,R2A1HI > 1.5,N,0
CDISCPILOT01,1146,01-701-1146,Xanomeline High Dose,81,Xanomeline High Dose,81,2013-05-20,2013-06-26,75,65-80,2,WHITE,1,F,N,Y,Y,Week 2,2,NA,NA,,NA,DERIVED,Bilirubin 1.5 x ULN,BILIHY,4,HYLAW,0,0,NA,NA,NA,NA,NA,NA,,Normal to Normal,1,,,NA
CDISCPILOT01,1146,01-701-1146,Xanomeline High Dose,81,Xanomeline High Dose,81,2013-05-20,2013-06-26,75,65-80,2,WHITE,1,F,N,Y,Y,Week 2,2,NA,NA,,NA,DERIVED,Transaminase 1.5 x ULN,TRANSHY,5,HYLAW,0,0,NA,NA,NA,NA,NA,NA,,Normal to Normal,1,,,NA
CDISCPILOT01,1146,01-701-1146,Xanomeline High Dose,81,Xanomeline High Dose,81,2013-05-20,2013-06-26,75,65-80,2,WHITE,1,F,N,Y,Y,Week 2,2,NA,NA,,NA,DERIVED,Total Bili 1.5 x ULN and Transaminase 1.5 x ULN,HYLAW,6,HYLAW,0,0,NA,NA,NA,NA,NA,NA,,Normal to Normal,1,,,NA
CDISCPILOT01,1146,01-701-1146,Xanomeline High Dose,81,Xanomeline High Dose,81,2013-05-20,2013-06-26,75,65-80,2,WHITE,1,F,N,Y,Y,Week 4,4,28,2013-06-16,WEEK 4,5,,Alanine Aminotransferase (U/L),ALT,1,CHEM,16,15,6,32,2.66666666666667,0.5,2.5,0.46875,,,NA,R2A1HI > 1.5,N,0
CDISCPILOT01,1146,01-701-1146,Xanomeline High Dose,81,Xanomeline High Dose,81,2013-05-20,2013-06-26,75,65-80,2,WHITE,1,F,N,Y,Y,Week 4,4,28,2013-06-16,WEEK 4,5,,Aspartate Aminotransferase (U/L),AST,2,CHEM,19,14,9,34,2.11111111111111,0.558823529411765,1.55555555555556,0.411764705882353,,,NA,R2A1HI > 1.5,N,0
CDISCPILOT01,1146,01-701-1146,Xanomeline High Dose,81,Xanomeline High Dose,81,2013-05-20,2013-06-26,75,65-80,2,WHITE,1,F,N,Y,Y,Week 4,4,28,2013-06-16,WEEK 4,5,,Bilirubin (umol/L),BILI,3,CHEM,5.13,5.13,3,21,1.71,0.244285714285714,1.71,0.244285714285714,,,NA,R2A1HI > 1.5,N,0
CDISCPILOT01,1146,01-701-1146,Xanomeline High Dose,81,Xanomeline High Dose,81,2013-05-20,2013-06-26,75,65-80,2,WHITE,1,F,N,Y,Y,Week 4,4,NA,NA,,NA,DERIVED,Bilirubin 1.5 x ULN,BILIHY,4,HYLAW,0,0,NA,NA,NA,NA,NA,NA,,Normal to Normal,1,,,NA
CDISCPILOT01,1146,01-701-1146,Xanomeline High Dose,81,Xanomeline High Dose,81,2013-05-20,2013-06-26,75,65-80,2,WHITE,1,F,N,Y,Y,Week 4,4,NA,NA,,NA,DERIVED,Transaminase 1.5 x ULN,TRANSHY,5,HYLAW,0,0,NA,NA,NA,NA,NA,NA,,Normal to Normal,1,,,NA
CDISCPILOT01,1146,01-701-1146,Xanomeline High Dose,81,Xanomeline High Dose,81,2013-05-20,2013-06-26,75,65-80,2,WHITE,1,F,N,Y,Y,Week 4,4,NA,NA,,NA,DERIVED,Total Bili 1.5 x ULN and Transaminase 1.5 x ULN,HYLAW,6,HYLAW,0,0,NA,NA,NA,NA,NA,NA,,Normal to Normal,1,,,NA
CDISCPILOT01,1146,01-701-1146,Xanomeline High Dose,81,Xanomeline High Dose,81,2013-05-20,2013-06-26,75,65-80,2,WHITE,1,F,N,Y,Y,Week 6,6,42,2013-06-30,WEEK 6,7,,Alanine Aminotransferase (U/L),ALT,1,CHEM,13,15,6,32,2.16666666666667,0.40625,2.5,0.46875,,,NA,R2A1HI > 1.5,N,0
CDISCPILOT01,1146,01-701-1146,Xanomeline High Dose,81,Xanomeline High Dose,81,2013-05-20,2013-06-26,75,65-80,2,WHITE,1,F,N,Y,Y,Week 6,6,42,2013-06-30,WEEK 6,7,,Aspartate Aminotransferase (U/L),AST,2,CHEM,20,14,9,34,2.22222222222222,0.588235294117647,1.55555555555556,0.411764705882353,,,NA,R2A1HI > 1.5,N,0
CDISCPILOT01,1146,01-701-1146,Xanomeline High Dose,81,Xanomeline High Dose,81,2013-05-20,2013-06-26,75,65-80,2,WHITE,1,F,N,Y,Y,Week 6,6,42,2013-06-30,WEEK 6,7,,Bilirubin (umol/L),BILI,3,CHEM,10.26,5.13,3,21,3.42,0.488571428571429,1.71,0.244285714285714,,,NA,R2A1HI > 1.5,N,0
CDISCPILOT01,1146,01-701-1146,Xanomeline High Dose,81,Xanomeline High Dose,81,2013-05-20,2013-06-26,75,65-80,2,WHITE,1,F,N,Y,Y,Week 6,6,NA,NA,,NA,DERIVED,Bilirubin 1.5 x ULN,BILIHY,4,HYLAW,0,0,NA,NA,NA,NA,NA,NA,,Normal to Normal,1,,,NA
CDISCPILOT01,1146,01-701-1146,Xanomeline High Dose,81,Xanomeline High Dose,81,2013-05-20,2013-06-26,75,65-80,2,WHITE,1,F,N,Y,Y,Week 6,6,NA,NA,,NA,DERIVED,Transaminase 1.5 x ULN,TRANSHY,5,HYLAW,0,0,NA,NA,NA,NA,NA,NA,,Normal to Normal,1,,,NA
CDISCPILOT01,1146,01-701-1146,Xanomeline High Dose,81,Xanomeline High Dose,81,2013-05-20,2013-06-26,75,65-80,2,WHITE,1,F,N,Y,Y,Week 6,6,NA,NA,,NA,DERIVED,Total Bili 1.5 x ULN and Transaminase 1.5 x ULN,HYLAW,6,HYLAW,0,0,NA,NA,NA,NA,NA,NA,,Normal to Normal,1,,,NA
CDISCPILOT01,1148,01-701-1148,Xanomeline High Dose,81,Xanomeline High Dose,81,2013-08-23,2014-02-20,57,<65,1,WHITE,1,M,Y,,Y,Baseline,0,-9,2013-08-14,SCREENING 1,1,,Alanine Aminotransferase (U/L),ALT,1,CHEM,34,34,6,43,5.66666666666667,0.790697674418605,5.66666666666667,0.790697674418605,Y,,NA,R2A1HI > 1.5,N,0
CDISCPILOT01,1148,01-701-1148,Xanomeline High Dose,81,Xanomeline High Dose,81,2013-08-23,2014-02-20,57,<65,1,WHITE,1,M,Y,,Y,Baseline,0,-9,2013-08-14,SCREENING 1,1,,Aspartate Aminotransferase (U/L),AST,2,CHEM,25,25,11,36,2.27272727272727,0.694444444444444,2.27272727272727,0.694444444444444,Y,,NA,R2A1HI > 1.5,N,0
CDISCPILOT01,1148,01-701-1148,Xanomeline High Dose,81,Xanomeline High Dose,81,2013-08-23,2014-02-20,57,<65,1,WHITE,1,M,Y,,Y,Baseline,0,-9,2013-08-14,SCREENING 1,1,,Bilirubin (umol/L),BILI,3,CHEM,8.55,8.55,3,21,2.85,0.407142857142857,2.85,0.407142857142857,Y,,NA,R2A1HI > 1.5,N,0
CDISCPILOT01,1148,01-701-1148,Xanomeline High Dose,81,Xanomeline High Dose,81,2013-08-23,2014-02-20,57,<65,1,WHITE,1,M,Y,,Y,Baseline,0,NA,NA,,NA,DERIVED,Bilirubin 1.5 x ULN,BILIHY,4,HYLAW,0,0,NA,NA,NA,NA,NA,NA,Y,Normal to Normal,1,,,NA
CDISCPILOT01,1148,01-701-1148,Xanomeline High Dose,81,Xanomeline High Dose,81,2013-08-23,2014-02-20,57,<65,1,WHITE,1,M,Y,,Y,Baseline,0,NA,NA,,NA,DERIVED,Transaminase 1.5 x ULN,TRANSHY,5,HYLAW,0,0,NA,NA,NA,NA,NA,NA,Y,Normal to Normal,1,,,NA
CDISCPILOT01,1148,01-701-1148,Xanomeline High Dose,81,Xanomeline High Dose,81,2013-08-23,2014-02-20,57,<65,1,WHITE,1,M,Y,,Y,Baseline,0,NA,NA,,NA,DERIVED,Total Bili 1.5 x ULN and Transaminase 1.5 x ULN,HYLAW,6,HYLAW,0,0,NA,NA,NA,NA,NA,NA,Y,Normal to Normal,1,,,NA
CDISCPILOT01,1148,01-701-1148,Xanomeline High Dose,81,Xanomeline High Dose,81,2013-08-23,2014-02-20,57,<65,1,WHITE,1,M,Y,,Y,Week 2,2,14,2013-09-05,WEEK 2,4,,Alanine Aminotransferase (U/L),ALT,1,CHEM,41,34,6,43,6.83333333333333,0.953488372093023,5.66666666666667,0.790697674418605,,,NA,R2A1HI > 1.5,N,0
CDISCPILOT01,1148,01-701-1148,Xanomeline High Dose,81,Xanomeline High Dose,81,2013-08-23,2014-02-20,57,<65,1,WHITE,1,M,Y,,Y,Week 2,2,14,2013-09-05,WEEK 2,4,,Aspartate Aminotransferase (U/L),AST,2,CHEM,27,25,11,36,2.45454545454545,0.75,2.27272727272727,0.694444444444444,,,NA,R2A1HI > 1.5,N,0
CDISCPILOT01,1148,01-701-1148,Xanomeline High Dose,81,Xanomeline High Dose,81,2013-08-23,2014-02-20,57,<65,1,WHITE,1,M,Y,,Y,Week 2,2,14,2013-09-05,WEEK 2,4,,Bilirubin (umol/L),BILI,3,CHEM,8.55,8.55,3,21,2.85,0.407142857142857,2.85,0.407142857142857,,,NA,R2A1HI > 1.5,N,0
CDISCPILOT01,1148,01-701-1148,Xanomeline High Dose,81,Xanomeline High Dose,81,2013-08-23,2014-02-20,57,<65,1,WHITE,1,M,Y,,Y,Week 2,2,NA,NA,,NA,DERIVED,Bilirubin 1.5 x ULN,BILIHY,4,HYLAW,0,0,NA,NA,NA,NA,NA,NA,,Normal to Normal,1,,,NA
CDISCPILOT01,1148,01-701-1148,Xanomeline High Dose,81,Xanomeline High Dose,81,2013-08-23,2014-02-20,57,<65,1,WHITE,1,M,Y,,Y,Week 2,2,NA,NA,,NA,DERIVED,Transaminase 1.5 x ULN,TRANSHY,5,HYLAW,0,0,NA,NA,NA,NA,NA,NA,,Normal to Normal,1,,,NA
CDISCPILOT01,1148,01-701-1148,Xanomeline High Dose,81,Xanomeline High Dose,81,2013-08-23,2014-02-20,57,<65,1,WHITE,1,M,Y,,Y,Week 2,2,NA,NA,,NA,DERIVED,Total Bili 1.5 x ULN and Transaminase 1.5 x ULN,HYLAW,6,HYLAW,0,0,NA,NA,NA,NA,NA,NA,,Normal to Normal,1,,,NA
CDISCPILOT01,1148,01-701-1148,Xanomeline High Dose,81,Xanomeline High Dose,81,2013-08-23,2014-02-20,57,<65,1,WHITE,1,M,Y,,Y,Week 4,4,28,2013-09-19,WEEK 4,5,,Alanine Aminotransferase (U/L),ALT,1,CHEM,35,34,6,43,5.83333333333333,0.813953488372093,5.66666666666667,0.790697674418605,,,NA,R2A1HI > 1.5,N,0
CDISCPILOT01,1148,01-701-1148,Xanomeline High Dose,81,Xanomeline High Dose,81,2013-08-23,2014-02-20,57,<65,1,WHITE,1,M,Y,,Y,Week 4,4,28,2013-09-19,WEEK 4,5,,Aspartate Aminotransferase (U/L),AST,2,CHEM,25,25,11,36,2.27272727272727,0.694444444444444,2.27272727272727,0.694444444444444,,,NA,R2A1HI > 1.5,N,0
CDISCPILOT01,1148,01-701-1148,Xanomeline High Dose,81,Xanomeline High Dose,81,2013-08-23,2014-02-20,57,<65,1,WHITE,1,M,Y,,Y,Week 4,4,28,2013-09-19,WEEK 4,5,,Bilirubin (umol/L),BILI,3,CHEM,8.55,8.55,3,21,2.85,0.407142857142857,2.85,0.407142857142857,,,NA,R2A1HI > 1.5,N,0
CDISCPILOT01,1148,01-701-1148,Xanomeline High Dose,81,Xanomeline High Dose,81,2013-08-23,2014-02-20,57,<65,1,WHITE,1,M,Y,,Y,Week 4,4,NA,NA,,NA,DERIVED,Bilirubin 1.5 x ULN,BILIHY,4,HYLAW,0,0,NA,NA,NA,NA,NA,NA,,Normal to Normal,1,,,NA
CDISCPILOT01,1148,01-701-1148,Xanomeline High Dose,81,Xanomeline High Dose,81,2013-08-23,2014-02-20,57,<65,1,WHITE,1,M,Y,,Y,Week 4,4,NA,NA,,NA,DERIVED,Transaminase 1.5 x ULN,TRANSHY,5,HYLAW,0,0,NA,NA,NA,NA,NA,NA,,Normal to Normal,1,,,NA
CDISCPILOT01,1148,01-701-1148,Xanomeline High Dose,81,Xanomeline High Dose,81,2013-08-23,2014-02-20,57,<65,1,WHITE,1,M,Y,,Y,Week 4,4,NA,NA,,NA,DERIVED,Total Bili 1.5 x ULN and Transaminase 1.5 x ULN,HYLAW,6,HYLAW,0,0,NA,NA,NA,NA,NA,NA,,Normal to Normal,1,,,NA
CDISCPILOT01,1148,01-701-1148,Xanomeline High Dose,81,Xanomeline High Dose,81,2013-08-23,2014-02-20,57,<65,1,WHITE,1,M,Y,,Y,Week 6,6,42,2013-10-03,WEEK 6,7,,Alanine Aminotransferase (U/L),ALT,1,CHEM,31,34,6,43,5.16666666666667,0.720930232558139,5.66666666666667,0.790697674418605,,,NA,R2A1HI > 1.5,N,0
CDISCPILOT01,1148,01-701-1148,Xanomeline High Dose,81,Xanomeline High Dose,81,2013-08-23,2014-02-20,57,<65,1,WHITE,1,M,Y,,Y,Week 6,6,42,2013-10-03,WEEK 6,7,,Aspartate Aminotransferase (U/L),AST,2,CHEM,22,25,11,36,2,0.611111111111111,2.27272727272727,0.694444444444444,,,NA,R2A1HI > 1.5,N,0
CDISCPILOT01,1148,01-701-1148,Xanomeline High Dose,81,Xanomeline High Dose,81,2013-08-23,2014-02-20,57,<65,1,WHITE,1,M,Y,,Y,Week 6,6,42,2013-10-03,WEEK 6,7,,Bilirubin (umol/L),BILI,3,CHEM,8.55,8.55,3,21,2.85,0.407142857142857,2.85,0.407142857142857,,,NA,R2A1HI > 1.5,N,0
CDISCPILOT01,1148,01-701-1148,Xanomeline High Dose,81,Xanomeline High Dose,81,2013-08-23,2014-02-20,57,<65,1,WHITE,1,M,Y,,Y,Week 6,6,NA,NA,,NA,DERIVED,Bilirubin 1.5 x ULN,BILIHY,4,HYLAW,0,0,NA,NA,NA,NA,NA,NA,,Normal to Normal,1,,,NA
CDISCPILOT01,1148,01-701-1148,Xanomeline High Dose,81,Xanomeline High Dose,81,2013-08-23,2014-02-20,57,<65,1,WHITE,1,M,Y,,Y,Week 6,6,NA,NA,,NA,DERIVED,Transaminase 1.5 x ULN,TRANSHY,5,HYLAW,0,0,NA,NA,NA,NA,NA,NA,,Normal to Normal,1,,,NA
CDISCPILOT01,1148,01-701-1148,Xanomeline High Dose,81,Xanomeline High Dose,81,2013-08-23,2014-02-20,57,<65,1,WHITE,1,M,Y,,Y,Week 6,6,NA,NA,,NA,DERIVED,Total Bili 1.5 x ULN and Transaminase 1.5 x ULN,HYLAW,6,HYLAW,0,0,NA,NA,NA,NA,NA,NA,,Normal to Normal,1,,,NA
CDISCPILOT01,1148,01-701-1148,Xanomeline High Dose,81,Xanomeline High Dose,81,2013-08-23,2014-02-20,57,<65,1,WHITE,1,M,Y,,Y,Week 8,8,57,2013-10-18,WEEK 8,8,,Alanine Aminotransferase (U/L),ALT,1,CHEM,31,34,6,43,5.16666666666667,0.720930232558139,5.66666666666667,0.790697674418605,,,NA,R2A1HI > 1.5,N,0
CDISCPILOT01,1148,01-701-1148,Xanomeline High Dose,81,Xanomeline High Dose,81,2013-08-23,2014-02-20,57,<65,1,WHITE,1,M,Y,,Y,Week 8,8,57,2013-10-18,WEEK 8,8,,Aspartate Aminotransferase (U/L),AST,2,CHEM,26,25,11,36,2.36363636363636,0.722222222222222,2.27272727272727,0.694444444444444,,,NA,R2A1HI > 1.5,N,0
CDISCPILOT01,1148,01-701-1148,Xanomeline High Dose,81,Xanomeline High Dose,81,2013-08-23,2014-02-20,57,<65,1,WHITE,1,M,Y,,Y,Week 8,8,57,2013-10-18,WEEK 8,8,,Bilirubin (umol/L),BILI,3,CHEM,8.55,8.55,3,21,2.85,0.407142857142857,2.85,0.407142857142857,,,NA,R2A1HI > 1.5,N,0
CDISCPILOT01,1148,01-701-1148,Xanomeline High Dose,81,Xanomeline High Dose,81,2013-08-23,2014-02-20,57,<65,1,WHITE,1,M,Y,,Y,Week 8,8,NA,NA,,NA,DERIVED,Bilirubin 1.5 x ULN,BILIHY,4,HYLAW,0,0,NA,NA,NA,NA,NA,NA,,Normal to Normal,1,,,NA
CDISCPILOT01,1148,01-701-1148,Xanomeline High Dose,81,Xanomeline High Dose,81,2013-08-23,2014-02-20,57,<65,1,WHITE,1,M,Y,,Y,Week 8,8,NA,NA,,NA,DERIVED,Transaminase 1.5 x ULN,TRANSHY,5,HYLAW,0,0,NA,NA,NA,NA,NA,NA,,Normal to Normal,1,,,NA
CDISCPILOT01,1148,01-701-1148,Xanomeline High Dose,81,Xanomeline High Dose,81,2013-08-23,2014-02-20,57,<65,1,WHITE,1,M,Y,,Y,Week 8,8,NA,NA,,NA,DERIVED,Total Bili 1.5 x ULN and Transaminase 1.5 x ULN,HYLAW,6,HYLAW,0,0,NA,NA,NA,NA,NA,NA,,Normal to Normal,1,,,NA
CDISCPILOT01,1148,01-701-1148,Xanomeline High Dose,81,Xanomeline High Dose,81,2013-08-23,2014-02-20,57,<65,1,WHITE,1,M,Y,,Y,Week 12,12,87,2013-11-17,WEEK 12,9,,Alanine Aminotransferase (U/L),ALT,1,CHEM,39,34,6,43,6.5,0.906976744186046,5.66666666666667,0.790697674418605,,,NA,R2A1HI > 1.5,N,0
CDISCPILOT01,1148,01-701-1148,Xanomeline High Dose,81,Xanomeline High Dose,81,2013-08-23,2014-02-20,57,<65,1,WHITE,1,M,Y,,Y,Week 12,12,87,2013-11-17,WEEK 12,9,,Aspartate Aminotransferase (U/L),AST,2,CHEM,25,25,11,36,2.27272727272727,0.694444444444444,2.27272727272727,0.694444444444444,,,NA,R2A1HI > 1.5,N,0
CDISCPILOT01,1148,01-701-1148,Xanomeline High Dose,81,Xanomeline High Dose,81,2013-08-23,2014-02-20,57,<65,1,WHITE,1,M,Y,,Y,Week 12,12,87,2013-11-17,WEEK 12,9,,Bilirubin (umol/L),BILI,3,CHEM,6.84,8.55,3,21,2.28,0.325714285714286,2.85,0.407142857142857,,,NA,R2A1HI > 1.5,N,0
CDISCPILOT01,1148,01-701-1148,Xanomeline High Dose,81,Xanomeline High Dose,81,2013-08-23,2014-02-20,57,<65,1,WHITE,1,M,Y,,Y,Week 12,12,NA,NA,,NA,DERIVED,Bilirubin 1.5 x ULN,BILIHY,4,HYLAW,0,0,NA,NA,NA,NA,NA,NA,,Normal to Normal,1,,,NA
CDISCPILOT01,1148,01-701-1148,Xanomeline High Dose,81,Xanomeline High Dose,81,2013-08-23,2014-02-20,57,<65,1,WHITE,1,M,Y,,Y,Week 12,12,NA,NA,,NA,DERIVED,Transaminase 1.5 x ULN,TRANSHY,5,HYLAW,0,0,NA,NA,NA,NA,NA,NA,,Normal to Normal,1,,,NA
CDISCPILOT01,1148,01-701-1148,Xanomeline High Dose,81,Xanomeline High Dose,81,2013-08-23,2014-02-20,57,<65,1,WHITE,1,M,Y,,Y,Week 12,12,NA,NA,,NA,DERIVED,Total Bili 1.5 x ULN and Transaminase 1.5 x ULN,HYLAW,6,HYLAW,0,0,NA,NA,NA,NA,NA,NA,,Normal to Normal,1,,,NA
CDISCPILOT01,1148,01-701-1148,Xanomeline High Dose,81,Xanomeline High Dose,81,2013-08-23,2014-02-20,57,<65,1,WHITE,1,M,Y,,Y,Week 16,16,113,2013-12-13,WEEK 16,10,,Alanine Aminotransferase (U/L),ALT,1,CHEM,33,34,6,43,5.5,0.767441860465116,5.66666666666667,0.790697674418605,,,NA,R2A1HI > 1.5,N,0
CDISCPILOT01,1148,01-701-1148,Xanomeline High Dose,81,Xanomeline High Dose,81,2013-08-23,2014-02-20,57,<65,1,WHITE,1,M,Y,,Y,Week 16,16,113,2013-12-13,WEEK 16,10,,Aspartate Aminotransferase (U/L),AST,2,CHEM,26,25,11,36,2.36363636363636,0.722222222222222,2.27272727272727,0.694444444444444,,,NA,R2A1HI > 1.5,N,0
CDISCPILOT01,1148,01-701-1148,Xanomeline High Dose,81,Xanomeline High Dose,81,2013-08-23,2014-02-20,57,<65,1,WHITE,1,M,Y,,Y,Week 16,16,113,2013-12-13,WEEK 16,10,,Bilirubin (umol/L),BILI,3,CHEM,11.97,8.55,3,21,3.99,0.57,2.85,0.407142857142857,,,NA,R2A1HI > 1.5,N,0
CDISCPILOT01,1148,01-701-1148,Xanomeline High Dose,81,Xanomeline High Dose,81,2013-08-23,2014-02-20,57,<65,1,WHITE,1,M,Y,,Y,Week 16,16,NA,NA,,NA,DERIVED,Bilirubin 1.5 x ULN,BILIHY,4,HYLAW,0,0,NA,NA,NA,NA,NA,NA,,Normal to Normal,1,,,NA
CDISCPILOT01,1148,01-701-1148,Xanomeline High Dose,81,Xanomeline High Dose,81,2013-08-23,2014-02-20,57,<65,1,WHITE,1,M,Y,,Y,Week 16,16,NA,NA,,NA,DERIVED,Transaminase 1.5 x ULN,TRANSHY,5,HYLAW,0,0,NA,NA,NA,NA,NA,NA,,Normal to Normal,1,,,NA
CDISCPILOT01,1148,01-701-1148,Xanomeline High Dose,81,Xanomeline High Dose,81,2013-08-23,2014-02-20,57,<65,1,WHITE,1,M,Y,,Y,Week 16,16,NA,NA,,NA,DERIVED,Total Bili 1.5 x ULN and Transaminase 1.5 x ULN,HYLAW,6,HYLAW,0,0,NA,NA,NA,NA,NA,NA,,Normal to Normal,1,,,NA
CDISCPILOT01,1148,01-701-1148,Xanomeline High Dose,81,Xanomeline High Dose,81,2013-08-23,2014-02-20,57,<65,1,WHITE,1,M,Y,,Y,Week 20,20,141,2014-01-10,WEEK 20,11,,Alanine Aminotransferase (U/L),ALT,1,CHEM,32,34,6,43,5.33333333333333,0.744186046511628,5.66666666666667,0.790697674418605,,,NA,R2A1HI > 1.5,N,0
CDISCPILOT01,1148,01-701-1148,Xanomeline High Dose,81,Xanomeline High Dose,81,2013-08-23,2014-02-20,57,<65,1,WHITE,1,M,Y,,Y,Week 20,20,141,2014-01-10,WEEK 20,11,,Aspartate Aminotransferase (U/L),AST,2,CHEM,26,25,11,36,2.36363636363636,0.722222222222222,2.27272727272727,0.694444444444444,,,NA,R2A1HI > 1.5,N,0
CDISCPILOT01,1148,01-701-1148,Xanomeline High Dose,81,Xanomeline High Dose,81,2013-08-23,2014-02-20,57,<65,1,WHITE,1,M,Y,,Y,Week 20,20,141,2014-01-10,WEEK 20,11,,Bilirubin (umol/L),BILI,3,CHEM,6.84,8.55,3,21,2.28,0.325714285714286,2.85,0.407142857142857,,,NA,R2A1HI > 1.5,N,0
CDISCPILOT01,1148,01-701-1148,Xanomeline High Dose,81,Xanomeline High Dose,81,2013-08-23,2014-02-20,57,<65,1,WHITE,1,M,Y,,Y,Week 20,20,NA,NA,,NA,DERIVED,Bilirubin 1.5 x ULN,BILIHY,4,HYLAW,0,0,NA,NA,NA,NA,NA,NA,,Normal to Normal,1,,,NA
CDISCPILOT01,1148,01-701-1148,Xanomeline High Dose,81,Xanomeline High Dose,81,2013-08-23,2014-02-20,57,<65,1,WHITE,1,M,Y,,Y,Week 20,20,NA,NA,,NA,DERIVED,Transaminase 1.5 x ULN,TRANSHY,5,HYLAW,0,0,NA,NA,NA,NA,NA,NA,,Normal to Normal,1,,,NA
CDISCPILOT01,1148,01-701-1148,Xanomeline High Dose,81,Xanomeline High Dose,81,2013-08-23,2014-02-20,57,<65,1,WHITE,1,M,Y,,Y,Week 20,20,NA,NA,,NA,DERIVED,Total Bili 1.5 x ULN and Transaminase 1.5 x ULN,HYLAW,6,HYLAW,0,0,NA,NA,NA,NA,NA,NA,,Normal to Normal,1,,,NA
CDISCPILOT01,1148,01-701-1148,Xanomeline High Dose,81,Xanomeline High Dose,81,2013-08-23,2014-02-20,57,<65,1,WHITE,1,M,Y,,Y,Week 24,24,170,2014-02-08,WEEK 24,12,,Alanine Aminotransferase (U/L),ALT,1,CHEM,37,34,6,43,6.16666666666667,0.86046511627907,5.66666666666667,0.790697674418605,,,NA,R2A1HI > 1.5,N,0
CDISCPILOT01,1148,01-701-1148,Xanomeline High Dose,81,Xanomeline High Dose,81,2013-08-23,2014-02-20,57,<65,1,WHITE,1,M,Y,,Y,Week 24,24,170,2014-02-08,WEEK 24,12,,Aspartate Aminotransferase (U/L),AST,2,CHEM,30,25,11,36,2.72727272727273,0.833333333333333,2.27272727272727,0.694444444444444,,,NA,R2A1HI > 1.5,N,0
CDISCPILOT01,1148,01-701-1148,Xanomeline High Dose,81,Xanomeline High Dose,81,2013-08-23,2014-02-20,57,<65,1,WHITE,1,M,Y,,Y,Week 24,24,170,2014-02-08,WEEK 24,12,,Bilirubin (umol/L),BILI,3,CHEM,6.84,8.55,3,21,2.28,0.325714285714286,2.85,0.407142857142857,,,NA,R2A1HI > 1.5,N,0
CDISCPILOT01,1148,01-701-1148,Xanomeline High Dose,81,Xanomeline High Dose,81,2013-08-23,2014-02-20,57,<65,1,WHITE,1,M,Y,,Y,Week 24,24,NA,NA,,NA,DERIVED,Bilirubin 1.5 x ULN,BILIHY,4,HYLAW,0,0,NA,NA,NA,NA,NA,NA,,Normal to Normal,1,,,NA
CDISCPILOT01,1148,01-701-1148,Xanomeline High Dose,81,Xanomeline High Dose,81,2013-08-23,2014-02-20,57,<65,1,WHITE,1,M,Y,,Y,Week 24,24,NA,NA,,NA,DERIVED,Transaminase 1.5 x ULN,TRANSHY,5,HYLAW,0,0,NA,NA,NA,NA,NA,NA,,Normal to Normal,1,,,NA
CDISCPILOT01,1148,01-701-1148,Xanomeline High Dose,81,Xanomeline High Dose,81,2013-08-23,2014-02-20,57,<65,1,WHITE,1,M,Y,,Y,Week 24,24,NA,NA,,NA,DERIVED,Total Bili 1.5 x ULN and Transaminase 1.5 x ULN,HYLAW,6,HYLAW,0,0,NA,NA,NA,NA,NA,NA,,Normal to Normal,1,,,NA
CDISCPILOT01,1153,01-701-1153,Placebo,0,Placebo,0,2013-09-23,2014-03-16,79,65-80,2,WHITE,1,F,Y,,Y,Baseline,0,-17,2013-09-06,SCREENING 1,1,,Alanine Aminotransferase (U/L),ALT,1,CHEM,13,13,6,32,2.16666666666667,0.40625,2.16666666666667,0.40625,Y,,NA,R2A1HI > 1.5,N,0
CDISCPILOT01,1153,01-701-1153,Placebo,0,Placebo,0,2013-09-23,2014-03-16,79,65-80,2,WHITE,1,F,Y,,Y,Baseline,0,-17,2013-09-06,SCREENING 1,1,,Aspartate Aminotransferase (U/L),AST,2,CHEM,24,24,9,34,2.66666666666667,0.705882352941177,2.66666666666667,0.705882352941177,Y,,NA,R2A1HI > 1.5,N,0
CDISCPILOT01,1153,01-701-1153,Placebo,0,Placebo,0,2013-09-23,2014-03-16,79,65-80,2,WHITE,1,F,Y,,Y,Baseline,0,-17,2013-09-06,SCREENING 1,1,,Bilirubin (umol/L),BILI,3,CHEM,5.13,5.13,3,21,1.71,0.244285714285714,1.71,0.244285714285714,Y,,NA,R2A1HI > 1.5,N,0
CDISCPILOT01,1153,01-701-1153,Placebo,0,Placebo,0,2013-09-23,2014-03-16,79,65-80,2,WHITE,1,F,Y,,Y,Baseline,0,NA,NA,,NA,DERIVED,Bilirubin 1.5 x ULN,BILIHY,4,HYLAW,0,0,NA,NA,NA,NA,NA,NA,Y,Normal to Normal,1,,,NA
CDISCPILOT01,1153,01-701-1153,Placebo,0,Placebo,0,2013-09-23,2014-03-16,79,65-80,2,WHITE,1,F,Y,,Y,Baseline,0,NA,NA,,NA,DERIVED,Transaminase 1.5 x ULN,TRANSHY,5,HYLAW,0,0,NA,NA,NA,NA,NA,NA,Y,Normal to Normal,1,,,NA
CDISCPILOT01,1153,01-701-1153,Placebo,0,Placebo,0,2013-09-23,2014-03-16,79,65-80,2,WHITE,1,F,Y,,Y,Baseline,0,NA,NA,,NA,DERIVED,Total Bili 1.5 x ULN and Transaminase 1.5 x ULN,HYLAW,6,HYLAW,0,0,NA,NA,NA,NA,NA,NA,Y,Normal to Normal,1,,,NA
CDISCPILOT01,1153,01-701-1153,Placebo,0,Placebo,0,2013-09-23,2014-03-16,79,65-80,2,WHITE,1,F,Y,,Y,Week 2,2,16,2013-10-08,WEEK 2,4,,Alanine Aminotransferase (U/L),ALT,1,CHEM,14,13,6,32,2.33333333333333,0.4375,2.16666666666667,0.40625,,,NA,R2A1HI > 1.5,N,0
CDISCPILOT01,1153,01-701-1153,Placebo,0,Placebo,0,2013-09-23,2014-03-16,79,65-80,2,WHITE,1,F,Y,,Y,Week 2,2,16,2013-10-08,WEEK 2,4,,Aspartate Aminotransferase (U/L),AST,2,CHEM,25,24,9,34,2.77777777777778,0.735294117647059,2.66666666666667,0.705882352941177,,,NA,R2A1HI > 1.5,N,0
CDISCPILOT01,1153,01-701-1153,Placebo,0,Placebo,0,2013-09-23,2014-03-16,79,65-80,2,WHITE,1,F,Y,,Y,Week 2,2,16,2013-10-08,WEEK 2,4,,Bilirubin (umol/L),BILI,3,CHEM,6.84,5.13,3,21,2.28,0.325714285714286,1.71,0.244285714285714,,,NA,R2A1HI > 1.5,N,0
CDISCPILOT01,1153,01-701-1153,Placebo,0,Placebo,0,2013-09-23,2014-03-16,79,65-80,2,WHITE,1,F,Y,,Y,Week 2,2,NA,NA,,NA,DERIVED,Bilirubin 1.5 x ULN,BILIHY,4,HYLAW,0,0,NA,NA,NA,NA,NA,NA,,Normal to Normal,1,,,NA
CDISCPILOT01,1153,01-701-1153,Placebo,0,Placebo,0,2013-09-23,2014-03-16,79,65-80,2,WHITE,1,F,Y,,Y,Week 2,2,NA,NA,,NA,DERIVED,Transaminase 1.5 x ULN,TRANSHY,5,HYLAW,0,0,NA,NA,NA,NA,NA,NA,,Normal to Normal,1,,,NA
CDISCPILOT01,1153,01-701-1153,Placebo,0,Placebo,0,2013-09-23,2014-03-16,79,65-80,2,WHITE,1,F,Y,,Y,Week 2,2,NA,NA,,NA,DERIVED,Total Bili 1.5 x ULN and Transaminase 1.5 x ULN,HYLAW,6,HYLAW,0,0,NA,NA,NA,NA,NA,NA,,Normal to Normal,1,,,NA
CDISCPILOT01,1153,01-701-1153,Placebo,0,Placebo,0,2013-09-23,2014-03-16,79,65-80,2,WHITE,1,F,Y,,Y,Week 4,4,27,2013-10-19,WEEK 4,5,,Alanine Aminotransferase (U/L),ALT,1,CHEM,14,13,6,32,2.33333333333333,0.4375,2.16666666666667,0.40625,,,NA,R2A1HI > 1.5,N,0
CDISCPILOT01,1153,01-701-1153,Placebo,0,Placebo,0,2013-09-23,2014-03-16,79,65-80,2,WHITE,1,F,Y,,Y,Week 4,4,27,2013-10-19,WEEK 4,5,,Aspartate Aminotransferase (U/L),AST,2,CHEM,22,24,9,34,2.44444444444444,0.647058823529412,2.66666666666667,0.705882352941177,,,NA,R2A1HI > 1.5,N,0
CDISCPILOT01,1153,01-701-1153,Placebo,0,Placebo,0,2013-09-23,2014-03-16,79,65-80,2,WHITE,1,F,Y,,Y,Week 4,4,27,2013-10-19,WEEK 4,5,,Bilirubin (umol/L),BILI,3,CHEM,6.84,5.13,3,21,2.28,0.325714285714286,1.71,0.244285714285714,,,NA,R2A1HI > 1.5,N,0
CDISCPILOT01,1153,01-701-1153,Placebo,0,Placebo,0,2013-09-23,2014-03-16,79,65-80,2,WHITE,1,F,Y,,Y,Week 4,4,NA,NA,,NA,DERIVED,Bilirubin 1.5 x ULN,BILIHY,4,HYLAW,0,0,NA,NA,NA,NA,NA,NA,,Normal to Normal,1,,,NA
CDISCPILOT01,1153,01-701-1153,Placebo,0,Placebo,0,2013-09-23,2014-03-16,79,65-80,2,WHITE,1,F,Y,,Y,Week 4,4,NA,NA,,NA,DERIVED,Transaminase 1.5 x ULN,TRANSHY,5,HYLAW,0,0,NA,NA,NA,NA,NA,NA,,Normal to Normal,1,,,NA
CDISCPILOT01,1153,01-701-1153,Placebo,0,Placebo,0,2013-09-23,2014-03-16,79,65-80,2,WHITE,1,F,Y,,Y,Week 4,4,NA,NA,,NA,DERIVED,Total Bili 1.5 x ULN and Transaminase 1.5 x ULN,HYLAW,6,HYLAW,0,0,NA,NA,NA,NA,NA,NA,,Normal to Normal,1,,,NA
CDISCPILOT01,1153,01-701-1153,Placebo,0,Placebo,0,2013-09-23,2014-03-16,79,65-80,2,WHITE,1,F,Y,,Y,Week 6,6,43,2013-11-04,WEEK 6,7,,Alanine Aminotransferase (U/L),ALT,1,CHEM,14,13,6,32,2.33333333333333,0.4375,2.16666666666667,0.40625,,,NA,R2A1HI > 1.5,N,0
CDISCPILOT01,1153,01-701-1153,Placebo,0,Placebo,0,2013-09-23,2014-03-16,79,65-80,2,WHITE,1,F,Y,,Y,Week 6,6,43,2013-11-04,WEEK 6,7,,Aspartate Aminotransferase (U/L),AST,2,CHEM,22,24,9,34,2.44444444444444,0.647058823529412,2.66666666666667,0.705882352941177,,,NA,R2A1HI > 1.5,N,0
CDISCPILOT01,1153,01-701-1153,Placebo,0,Placebo,0,2013-09-23,2014-03-16,79,65-80,2,WHITE,1,F,Y,,Y,Week 6,6,43,2013-11-04,WEEK 6,7,,Bilirubin (umol/L),BILI,3,CHEM,6.84,5.13,3,21,2.28,0.325714285714286,1.71,0.244285714285714,,,NA,R2A1HI > 1.5,N,0
CDISCPILOT01,1153,01-701-1153,Placebo,0,Placebo,0,2013-09-23,2014-03-16,79,65-80,2,WHITE,1,F,Y,,Y,Week 6,6,NA,NA,,NA,DERIVED,Bilirubin 1.5 x ULN,BILIHY,4,HYLAW,0,0,NA,NA,NA,NA,NA,NA,,Normal to Normal,1,,,NA
CDISCPILOT01,1153,01-701-1153,Placebo,0,Placebo,0,2013-09-23,2014-03-16,79,65-80,2,WHITE,1,F,Y,,Y,Week 6,6,NA,NA,,NA,DERIVED,Transaminase 1.5 x ULN,TRANSHY,5,HYLAW,0,0,NA,NA,NA,NA,NA,NA,,Normal to Normal,1,,,NA
CDISCPILOT01,1153,01-701-1153,Placebo,0,Placebo,0,2013-09-23,2014-03-16,79,65-80,2,WHITE,1,F,Y,,Y,Week 6,6,NA,NA,,NA,DERIVED,Total Bili 1.5 x ULN and Transaminase 1.5 x ULN,HYLAW,6,HYLAW,0,0,NA,NA,NA,NA,NA,NA,,Normal to Normal,1,,,NA
CDISCPILOT01,1153,01-701-1153,Placebo,0,Placebo,0,2013-09-23,2014-03-16,79,65-80,2,WHITE,1,F,Y,,Y,Week 8,8,57,2013-11-18,WEEK 8,8,,Alanine Aminotransferase (U/L),ALT,1,CHEM,11,13,6,32,1.83333333333333,0.34375,2.16666666666667,0.40625,,,NA,R2A1HI > 1.5,N,0
CDISCPILOT01,1153,01-701-1153,Placebo,0,Placebo,0,2013-09-23,2014-03-16,79,65-80,2,WHITE,1,F,Y,,Y,Week 8,8,57,2013-11-18,WEEK 8,8,,Aspartate Aminotransferase (U/L),AST,2,CHEM,21,24,9,34,2.33333333333333,0.617647058823529,2.66666666666667,0.705882352941177,,,NA,R2A1HI > 1.5,N,0
CDISCPILOT01,1153,01-701-1153,Placebo,0,Placebo,0,2013-09-23,2014-03-16,79,65-80,2,WHITE,1,F,Y,,Y,Week 8,8,57,2013-11-18,WEEK 8,8,,Bilirubin (umol/L),BILI,3,CHEM,5.13,5.13,3,21,1.71,0.244285714285714,1.71,0.244285714285714,,,NA,R2A1HI > 1.5,N,0
CDISCPILOT01,1153,01-701-1153,Placebo,0,Placebo,0,2013-09-23,2014-03-16,79,65-80,2,WHITE,1,F,Y,,Y,Week 8,8,NA,NA,,NA,DERIVED,Bilirubin 1.5 x ULN,BILIHY,4,HYLAW,0,0,NA,NA,NA,NA,NA,NA,,Normal to Normal,1,,,NA
CDISCPILOT01,1153,01-701-1153,Placebo,0,Placebo,0,2013-09-23,2014-03-16,79,65-80,2,WHITE,1,F,Y,,Y,Week 8,8,NA,NA,,NA,DERIVED,Transaminase 1.5 x ULN,TRANSHY,5,HYLAW,0,0,NA,NA,NA,NA,NA,NA,,Normal to Normal,1,,,NA
CDISCPILOT01,1153,01-701-1153,Placebo,0,Placebo,0,2013-09-23,2014-03-16,79,65-80,2,WHITE,1,F,Y,,Y,Week 8,8,NA,NA,,NA,DERIVED,Total Bili 1.5 x ULN and Transaminase 1.5 x ULN,HYLAW,6,HYLAW,0,0,NA,NA,NA,NA,NA,NA,,Normal to Normal,1,,,NA
CDISCPILOT01,1153,01-701-1153,Placebo,0,Placebo,0,2013-09-23,2014-03-16,79,65-80,2,WHITE,1,F,Y,,Y,Week 12,12,85,2013-12-16,WEEK 12,9,,Alanine Aminotransferase (U/L),ALT,1,CHEM,13,13,6,32,2.16666666666667,0.40625,2.16666666666667,0.40625,,,NA,R2A1HI > 1.5,N,0
CDISCPILOT01,1153,01-701-1153,Placebo,0,Placebo,0,2013-09-23,2014-03-16,79,65-80,2,WHITE,1,F,Y,,Y,Week 12,12,85,2013-12-16,WEEK 12,9,,Aspartate Aminotransferase (U/L),AST,2,CHEM,22,24,9,34,2.44444444444444,0.647058823529412,2.66666666666667,0.705882352941177,,,NA,R2A1HI > 1.5,N,0
CDISCPILOT01,1153,01-701-1153,Placebo,0,Placebo,0,2013-09-23,2014-03-16,79,65-80,2,WHITE,1,F,Y,,Y,Week 12,12,85,2013-12-16,WEEK 12,9,,Bilirubin (umol/L),BILI,3,CHEM,6.84,5.13,3,21,2.28,0.325714285714286,1.71,0.244285714285714,,,NA,R2A1HI > 1.5,N,0
CDISCPILOT01,1153,01-701-1153,Placebo,0,Placebo,0,2013-09-23,2014-03-16,79,65-80,2,WHITE,1,F,Y,,Y,Week 12,12,NA,NA,,NA,DERIVED,Bilirubin 1.5 x ULN,BILIHY,4,HYLAW,0,0,NA,NA,NA,NA,NA,NA,,Normal to Normal,1,,,NA
CDISCPILOT01,1153,01-701-1153,Placebo,0,Placebo,0,2013-09-23,2014-03-16,79,65-80,2,WHITE,1,F,Y,,Y,Week 12,12,NA,NA,,NA,DERIVED,Transaminase 1.5 x ULN,TRANSHY,5,HYLAW,0,0,NA,NA,NA,NA,NA,NA,,Normal to Normal,1,,,NA
CDISCPILOT01,1153,01-701-1153,Placebo,0,Placebo,0,2013-09-23,2014-03-16,79,65-80,2,WHITE,1,F,Y,,Y,Week 12,12,NA,NA,,NA,DERIVED,Total Bili 1.5 x ULN and Transaminase 1.5 x ULN,HYLAW,6,HYLAW,0,0,NA,NA,NA,NA,NA,NA,,Normal to Normal,1,,,NA
CDISCPILOT01,1153,01-701-1153,Placebo,0,Placebo,0,2013-09-23,2014-03-16,79,65-80,2,WHITE,1,F,Y,,Y,Week 16,16,108,2014-01-08,WEEK 16,10,,Alanine Aminotransferase (U/L),ALT,1,CHEM,17,13,6,32,2.83333333333333,0.53125,2.16666666666667,0.40625,,,NA,R2A1HI > 1.5,N,0
CDISCPILOT01,1153,01-701-1153,Placebo,0,Placebo,0,2013-09-23,2014-03-16,79,65-80,2,WHITE,1,F,Y,,Y,Week 16,16,108,2014-01-08,WEEK 16,10,,Aspartate Aminotransferase (U/L),AST,2,CHEM,25,24,9,34,2.77777777777778,0.735294117647059,2.66666666666667,0.705882352941177,,,NA,R2A1HI > 1.5,N,0
CDISCPILOT01,1153,01-701-1153,Placebo,0,Placebo,0,2013-09-23,2014-03-16,79,65-80,2,WHITE,1,F,Y,,Y,Week 16,16,108,2014-01-08,WEEK 16,10,,Bilirubin (umol/L),BILI,3,CHEM,8.55,5.13,3,21,2.85,0.407142857142857,1.71,0.244285714285714,,,NA,R2A1HI > 1.5,N,0
CDISCPILOT01,1153,01-701-1153,Placebo,0,Placebo,0,2013-09-23,2014-03-16,79,65-80,2,WHITE,1,F,Y,,Y,Week 16,16,NA,NA,,NA,DERIVED,Bilirubin 1.5 x ULN,BILIHY,4,HYLAW,0,0,NA,NA,NA,NA,NA,NA,,Normal to Normal,1,,,NA
CDISCPILOT01,1153,01-701-1153,Placebo,0,Placebo,0,2013-09-23,2014-03-16,79,65-80,2,WHITE,1,F,Y,,Y,Week 16,16,NA,NA,,NA,DERIVED,Transaminase 1.5 x ULN,TRANSHY,5,HYLAW,0,0,NA,NA,NA,NA,NA,NA,,Normal to Normal,1,,,NA
CDISCPILOT01,1153,01-701-1153,Placebo,0,Placebo,0,2013-09-23,2014-03-16,79,65-80,2,WHITE,1,F,Y,,Y,Week 16,16,NA,NA,,NA,DERIVED,Total Bili 1.5 x ULN and Transaminase 1.5 x ULN,HYLAW,6,HYLAW,0,0,NA,NA,NA,NA,NA,NA,,Normal to Normal,1,,,NA
CDISCPILOT01,1153,01-701-1153,Placebo,0,Placebo,0,2013-09-23,2014-03-16,79,65-80,2,WHITE,1,F,Y,,Y,Week 20,20,142,2014-02-11,WEEK 20,11,,Alanine Aminotransferase (U/L),ALT,1,CHEM,14,13,6,32,2.33333333333333,0.4375,2.16666666666667,0.40625,,,NA,R2A1HI > 1.5,N,0
CDISCPILOT01,1153,01-701-1153,Placebo,0,Placebo,0,2013-09-23,2014-03-16,79,65-80,2,WHITE,1,F,Y,,Y,Week 20,20,142,2014-02-11,WEEK 20,11,,Aspartate Aminotransferase (U/L),AST,2,CHEM,24,24,9,34,2.66666666666667,0.705882352941177,2.66666666666667,0.705882352941177,,,NA,R2A1HI > 1.5,N,0
CDISCPILOT01,1153,01-701-1153,Placebo,0,Placebo,0,2013-09-23,2014-03-16,79,65-80,2,WHITE,1,F,Y,,Y,Week 20,20,142,2014-02-11,WEEK 20,11,,Bilirubin (umol/L),BILI,3,CHEM,5.13,5.13,3,21,1.71,0.244285714285714,1.71,0.244285714285714,,,NA,R2A1HI > 1.5,N,0
CDISCPILOT01,1153,01-701-1153,Placebo,0,Placebo,0,2013-09-23,2014-03-16,79,65-80,2,WHITE,1,F,Y,,Y,Week 20,20,NA,NA,,NA,DERIVED,Bilirubin 1.5 x ULN,BILIHY,4,HYLAW,0,0,NA,NA,NA,NA,NA,NA,,Normal to Normal,1,,,NA
CDISCPILOT01,1153,01-701-1153,Placebo,0,Placebo,0,2013-09-23,2014-03-16,79,65-80,2,WHITE,1,F,Y,,Y,Week 20,20,NA,NA,,NA,DERIVED,Transaminase 1.5 x ULN,TRANSHY,5,HYLAW,0,0,NA,NA,NA,NA,NA,NA,,Normal to Normal,1,,,NA
CDISCPILOT01,1153,01-701-1153,Placebo,0,Placebo,0,2013-09-23,2014-03-16,79,65-80,2,WHITE,1,F,Y,,Y,Week 20,20,NA,NA,,NA,DERIVED,Total Bili 1.5 x ULN and Transaminase 1.5 x ULN,HYLAW,6,HYLAW,0,0,NA,NA,NA,NA,NA,NA,,Normal to Normal,1,,,NA
CDISCPILOT01,1153,01-701-1153,Placebo,0,Placebo,0,2013-09-23,2014-03-16,79,65-80,2,WHITE,1,F,Y,,Y,Week 24,24,170,2014-03-11,WEEK 24,12,,Alanine Aminotransferase (U/L),ALT,1,CHEM,13,13,6,32,2.16666666666667,0.40625,2.16666666666667,0.40625,,,NA,R2A1HI > 1.5,N,0
CDISCPILOT01,1153,01-701-1153,Placebo,0,Placebo,0,2013-09-23,2014-03-16,79,65-80,2,WHITE,1,F,Y,,Y,Week 24,24,170,2014-03-11,WEEK 24,12,,Aspartate Aminotransferase (U/L),AST,2,CHEM,22,24,9,34,2.44444444444444,0.647058823529412,2.66666666666667,0.705882352941177,,,NA,R2A1HI > 1.5,N,0
CDISCPILOT01,1153,01-701-1153,Placebo,0,Placebo,0,2013-09-23,2014-03-16,79,65-80,2,WHITE,1,F,Y,,Y,Week 24,24,170,2014-03-11,WEEK 24,12,,Bilirubin (umol/L),BILI,3,CHEM,6.84,5.13,3,21,2.28,0.325714285714286,1.71,0.244285714285714,,,NA,R2A1HI > 1.5,N,0
CDISCPILOT01,1153,01-701-1153,Placebo,0,Placebo,0,2013-09-23,2014-03-16,79,65-80,2,WHITE,1,F,Y,,Y,Week 24,24,NA,NA,,NA,DERIVED,Bilirubin 1.5 x ULN,BILIHY,4,HYLAW,0,0,NA,NA,NA,NA,NA,NA,,Normal to Normal,1,,,NA
CDISCPILOT01,1153,01-701-1153,Placebo,0,Placebo,0,2013-09-23,2014-03-16,79,65-80,2,WHITE,1,F,Y,,Y,Week 24,24,NA,NA,,NA,DERIVED,Transaminase 1.5 x ULN,TRANSHY,5,HYLAW,0,0,NA,NA,NA,NA,NA,NA,,Normal to Normal,1,,,NA
CDISCPILOT01,1153,01-701-1153,Placebo,0,Placebo,0,2013-09-23,2014-03-16,79,65-80,2,WHITE,1,F,Y,,Y,Week 24,24,NA,NA,,NA,DERIVED,Total Bili 1.5 x ULN and Transaminase 1.5 x ULN,HYLAW,6,HYLAW,0,0,NA,NA,NA,NA,NA,NA,,Normal to Normal,1,,,NA
CDISCPILOT01,1180,01-701-1180,Xanomeline High Dose,81,Xanomeline High Dose,81,2013-02-12,2013-03-18,56,<65,1,WHITE,1,M,N,Y,Y,Baseline,0,-15,2013-01-28,SCREENING 1,1,,Alanine Aminotransferase (U/L),ALT,1,CHEM,29,29,6,43,4.83333333333333,0.674418604651163,4.83333333333333,0.674418604651163,Y,,NA,R2A1HI > 1.5,N,0
CDISCPILOT01,1180,01-701-1180,Xanomeline High Dose,81,Xanomeline High Dose,81,2013-02-12,2013-03-18,56,<65,1,WHITE,1,M,N,Y,Y,Baseline,0,-15,2013-01-28,SCREENING 1,1,,Aspartate Aminotransferase (U/L),AST,2,CHEM,21,21,11,36,1.90909090909091,0.583333333333333,1.90909090909091,0.583333333333333,Y,,NA,R2A1HI > 1.5,N,0
CDISCPILOT01,1180,01-701-1180,Xanomeline High Dose,81,Xanomeline High Dose,81,2013-02-12,2013-03-18,56,<65,1,WHITE,1,M,N,Y,Y,Baseline,0,-15,2013-01-28,SCREENING 1,1,,Bilirubin (umol/L),BILI,3,CHEM,11.97,11.97,3,21,3.99,0.57,3.99,0.57,Y,,NA,R2A1HI > 1.5,N,0
CDISCPILOT01,1180,01-701-1180,Xanomeline High Dose,81,Xanomeline High Dose,81,2013-02-12,2013-03-18,56,<65,1,WHITE,1,M,N,Y,Y,Baseline,0,NA,NA,,NA,DERIVED,Bilirubin 1.5 x ULN,BILIHY,4,HYLAW,0,0,NA,NA,NA,NA,NA,NA,Y,Normal to Normal,1,,,NA
CDISCPILOT01,1180,01-701-1180,Xanomeline High Dose,81,Xanomeline High Dose,81,2013-02-12,2013-03-18,56,<65,1,WHITE,1,M,N,Y,Y,Baseline,0,NA,NA,,NA,DERIVED,Transaminase 1.5 x ULN,TRANSHY,5,HYLAW,0,0,NA,NA,NA,NA,NA,NA,Y,Normal to Normal,1,,,NA
CDISCPILOT01,1180,01-701-1180,Xanomeline High Dose,81,Xanomeline High Dose,81,2013-02-12,2013-03-18,56,<65,1,WHITE,1,M,N,Y,Y,Baseline,0,NA,NA,,NA,DERIVED,Total Bili 1.5 x ULN and Transaminase 1.5 x ULN,HYLAW,6,HYLAW,0,0,NA,NA,NA,NA,NA,NA,Y,Normal to Normal,1,,,NA
CDISCPILOT01,1180,01-701-1180,Xanomeline High Dose,81,Xanomeline High Dose,81,2013-02-12,2013-03-18,56,<65,1,WHITE,1,M,N,Y,Y,Week 2,2,14,2013-02-25,WEEK 2,4,,Alanine Aminotransferase (U/L),ALT,1,CHEM,29,29,6,43,4.83333333333333,0.674418604651163,4.83333333333333,0.674418604651163,,,NA,R2A1HI > 1.5,N,0
CDISCPILOT01,1180,01-701-1180,Xanomeline High Dose,81,Xanomeline High Dose,81,2013-02-12,2013-03-18,56,<65,1,WHITE,1,M,N,Y,Y,Week 2,2,14,2013-02-25,WEEK 2,4,,Aspartate Aminotransferase (U/L),AST,2,CHEM,25,21,11,36,2.27272727272727,0.694444444444444,1.90909090909091,0.583333333333333,,,NA,R2A1HI > 1.5,N,0
CDISCPILOT01,1180,01-701-1180,Xanomeline High Dose,81,Xanomeline High Dose,81,2013-02-12,2013-03-18,56,<65,1,WHITE,1,M,N,Y,Y,Week 2,2,14,2013-02-25,WEEK 2,4,,Bilirubin (umol/L),BILI,3,CHEM,8.55,11.97,3,21,2.85,0.407142857142857,3.99,0.57,,,NA,R2A1HI > 1.5,N,0
CDISCPILOT01,1180,01-701-1180,Xanomeline High Dose,81,Xanomeline High Dose,81,2013-02-12,2013-03-18,56,<65,1,WHITE,1,M,N,Y,Y,Week 2,2,NA,NA,,NA,DERIVED,Bilirubin 1.5 x ULN,BILIHY,4,HYLAW,0,0,NA,NA,NA,NA,NA,NA,,Normal to Normal,1,,,NA
CDISCPILOT01,1180,01-701-1180,Xanomeline High Dose,81,Xanomeline High Dose,81,2013-02-12,2013-03-18,56,<65,1,WHITE,1,M,N,Y,Y,Week 2,2,NA,NA,,NA,DERIVED,Transaminase 1.5 x ULN,TRANSHY,5,HYLAW,0,0,NA,NA,NA,NA,NA,NA,,Normal to Normal,1,,,NA
CDISCPILOT01,1180,01-701-1180,Xanomeline High Dose,81,Xanomeline High Dose,81,2013-02-12,2013-03-18,56,<65,1,WHITE,1,M,N,Y,Y,Week 2,2,NA,NA,,NA,DERIVED,Total Bili 1.5 x ULN and Transaminase 1.5 x ULN,HYLAW,6,HYLAW,0,0,NA,NA,NA,NA,NA,NA,,Normal to Normal,1,,,NA
CDISCPILOT01,1180,01-701-1180,Xanomeline High Dose,81,Xanomeline High Dose,81,2013-02-12,2013-03-18,56,<65,1,WHITE,1,M,N,Y,Y,Week 4,4,28,2013-03-11,WEEK 4,5,,Alanine Aminotransferase (U/L),ALT,1,CHEM,20,29,6,43,3.33333333333333,0.465116279069767,4.83333333333333,0.674418604651163,,,NA,R2A1HI > 1.5,N,0
CDISCPILOT01,1180,01-701-1180,Xanomeline High Dose,81,Xanomeline High Dose,81,2013-02-12,2013-03-18,56,<65,1,WHITE,1,M,N,Y,Y,Week 4,4,28,2013-03-11,WEEK 4,5,,Aspartate Aminotransferase (U/L),AST,2,CHEM,17,21,11,36,1.54545454545455,0.472222222222222,1.90909090909091,0.583333333333333,,,NA,R2A1HI > 1.5,N,0
CDISCPILOT01,1180,01-701-1180,Xanomeline High Dose,81,Xanomeline High Dose,81,2013-02-12,2013-03-18,56,<65,1,WHITE,1,M,N,Y,Y,Week 4,4,28,2013-03-11,WEEK 4,5,,Bilirubin (umol/L),BILI,3,CHEM,10.26,11.97,3,21,3.42,0.488571428571429,3.99,0.57,,,NA,R2A1HI > 1.5,N,0
CDISCPILOT01,1180,01-701-1180,Xanomeline High Dose,81,Xanomeline High Dose,81,2013-02-12,2013-03-18,56,<65,1,WHITE,1,M,N,Y,Y,Week 4,4,NA,NA,,NA,DERIVED,Bilirubin 1.5 x ULN,BILIHY,4,HYLAW,0,0,NA,NA,NA,NA,NA,NA,,Normal to Normal,1,,,NA
CDISCPILOT01,1180,01-701-1180,Xanomeline High Dose,81,Xanomeline High Dose,81,2013-02-12,2013-03-18,56,<65,1,WHITE,1,M,N,Y,Y,Week 4,4,NA,NA,,NA,DERIVED,Transaminase 1.5 x ULN,TRANSHY,5,HYLAW,0,0,NA,NA,NA,NA,NA,NA,,Normal to Normal,1,,,NA
CDISCPILOT01,1180,01-701-1180,Xanomeline High Dose,81,Xanomeline High Dose,81,2013-02-12,2013-03-18,56,<65,1,WHITE,1,M,N,Y,Y,Week 4,4,NA,NA,,NA,DERIVED,Total Bili 1.5 x ULN and Transaminase 1.5 x ULN,HYLAW,6,HYLAW,0,0,NA,NA,NA,NA,NA,NA,,Normal to Normal,1,,,NA
CDISCPILOT01,1180,01-701-1180,Xanomeline High Dose,81,Xanomeline High Dose,81,2013-02-12,2013-03-18,56,<65,1,WHITE,1,M,N,Y,Y,Week 6,6,40,2013-03-23,WEEK 6,7,,Alanine Aminotransferase (U/L),ALT,1,CHEM,19,29,6,43,3.16666666666667,0.441860465116279,4.83333333333333,0.674418604651163,,,NA,R2A1HI > 1.5,N,0
CDISCPILOT01,1180,01-701-1180,Xanomeline High Dose,81,Xanomeline High Dose,81,2013-02-12,2013-03-18,56,<65,1,WHITE,1,M,N,Y,Y,Week 6,6,40,2013-03-23,WEEK 6,7,,Aspartate Aminotransferase (U/L),AST,2,CHEM,21,21,11,36,1.90909090909091,0.583333333333333,1.90909090909091,0.583333333333333,,,NA,R2A1HI > 1.5,N,0
CDISCPILOT01,1180,01-701-1180,Xanomeline High Dose,81,Xanomeline High Dose,81,2013-02-12,2013-03-18,56,<65,1,WHITE,1,M,N,Y,Y,Week 6,6,40,2013-03-23,WEEK 6,7,,Bilirubin (umol/L),BILI,3,CHEM,8.55,11.97,3,21,2.85,0.407142857142857,3.99,0.57,,,NA,R2A1HI > 1.5,N,0
CDISCPILOT01,1180,01-701-1180,Xanomeline High Dose,81,Xanomeline High Dose,81,2013-02-12,2013-03-18,56,<65,1,WHITE,1,M,N,Y,Y,Week 6,6,NA,NA,,NA,DERIVED,Bilirubin 1.5 x ULN,BILIHY,4,HYLAW,0,0,NA,NA,NA,NA,NA,NA,,Normal to Normal,1,,,NA
CDISCPILOT01,1180,01-701-1180,Xanomeline High Dose,81,Xanomeline High Dose,81,2013-02-12,2013-03-18,56,<65,1,WHITE,1,M,N,Y,Y,Week 6,6,NA,NA,,NA,DERIVED,Transaminase 1.5 x ULN,TRANSHY,5,HYLAW,0,0,NA,NA,NA,NA,NA,NA,,Normal to Normal,1,,,NA
CDISCPILOT01,1180,01-701-1180,Xanomeline High Dose,81,Xanomeline High Dose,81,2013-02-12,2013-03-18,56,<65,1,WHITE,1,M,N,Y,Y,Week 6,6,NA,NA,,NA,DERIVED,Total Bili 1.5 x ULN and Transaminase 1.5 x ULN,HYLAW,6,HYLAW,0,0,NA,NA,NA,NA,NA,NA,,Normal to Normal,1,,,NA
CDISCPILOT01,1181,01-701-1181,Xanomeline High Dose,81,Xanomeline High Dose,81,2013-12-05,2013-12-09,79,65-80,2,WHITE,1,F,N,Y,Y,Baseline,0,-9,2013-11-26,SCREENING 1,1,,Alanine Aminotransferase (U/L),ALT,1,CHEM,18,18,6,32,3,0.5625,3,0.5625,Y,,NA,R2A1HI > 1.5,N,0
CDISCPILOT01,1181,01-701-1181,Xanomeline High Dose,81,Xanomeline High Dose,81,2013-12-05,2013-12-09,79,65-80,2,WHITE,1,F,N,Y,Y,Baseline,0,-9,2013-11-26,SCREENING 1,1,,Aspartate Aminotransferase (U/L),AST,2,CHEM,20,20,9,34,2.22222222222222,0.588235294117647,2.22222222222222,0.588235294117647,Y,,NA,R2A1HI > 1.5,N,0
CDISCPILOT01,1181,01-701-1181,Xanomeline High Dose,81,Xanomeline High Dose,81,2013-12-05,2013-12-09,79,65-80,2,WHITE,1,F,N,Y,Y,Baseline,0,-9,2013-11-26,SCREENING 1,1,,Bilirubin (umol/L),BILI,3,CHEM,5.13,5.13,3,21,1.71,0.244285714285714,1.71,0.244285714285714,Y,,NA,R2A1HI > 1.5,N,0
CDISCPILOT01,1181,01-701-1181,Xanomeline High Dose,81,Xanomeline High Dose,81,2013-12-05,2013-12-09,79,65-80,2,WHITE,1,F,N,Y,Y,Baseline,0,NA,NA,,NA,DERIVED,Bilirubin 1.5 x ULN,BILIHY,4,HYLAW,0,0,NA,NA,NA,NA,NA,NA,Y,Normal to Normal,1,,,NA
CDISCPILOT01,1181,01-701-1181,Xanomeline High Dose,81,Xanomeline High Dose,81,2013-12-05,2013-12-09,79,65-80,2,WHITE,1,F,N,Y,Y,Baseline,0,NA,NA,,NA,DERIVED,Transaminase 1.5 x ULN,TRANSHY,5,HYLAW,0,0,NA,NA,NA,NA,NA,NA,Y,Normal to Normal,1,,,NA
CDISCPILOT01,1181,01-701-1181,Xanomeline High Dose,81,Xanomeline High Dose,81,2013-12-05,2013-12-09,79,65-80,2,WHITE,1,F,N,Y,Y,Baseline,0,NA,NA,,NA,DERIVED,Total Bili 1.5 x ULN and Transaminase 1.5 x ULN,HYLAW,6,HYLAW,0,0,NA,NA,NA,NA,NA,NA,Y,Normal to Normal,1,,,NA
CDISCPILOT01,1181,01-701-1181,Xanomeline High Dose,81,Xanomeline High Dose,81,2013-12-05,2013-12-09,79,65-80,2,WHITE,1,F,N,Y,Y,Week 2,2,8,2013-12-12,WEEK 2,4,,Alanine Aminotransferase (U/L),ALT,1,CHEM,14,18,6,32,2.33333333333333,0.4375,3,0.5625,,,NA,R2A1HI > 1.5,N,0
CDISCPILOT01,1181,01-701-1181,Xanomeline High Dose,81,Xanomeline High Dose,81,2013-12-05,2013-12-09,79,65-80,2,WHITE,1,F,N,Y,Y,Week 2,2,8,2013-12-12,WEEK 2,4,,Aspartate Aminotransferase (U/L),AST,2,CHEM,23,20,9,34,2.55555555555556,0.676470588235294,2.22222222222222,0.588235294117647,,,NA,R2A1HI > 1.5,N,0
CDISCPILOT01,1181,01-701-1181,Xanomeline High Dose,81,Xanomeline High Dose,81,2013-12-05,2013-12-09,79,65-80,2,WHITE,1,F,N,Y,Y,Week 2,2,8,2013-12-12,WEEK 2,4,,Bilirubin (umol/L),BILI,3,CHEM,8.55,5.13,3,21,2.85,0.407142857142857,1.71,0.244285714285714,,,NA,R2A1HI > 1.5,N,0
CDISCPILOT01,1181,01-701-1181,Xanomeline High Dose,81,Xanomeline High Dose,81,2013-12-05,2013-12-09,79,65-80,2,WHITE,1,F,N,Y,Y,Week 2,2,NA,NA,,NA,DERIVED,Bilirubin 1.5 x ULN,BILIHY,4,HYLAW,0,0,NA,NA,NA,NA,NA,NA,,Normal to Normal,1,,,NA
CDISCPILOT01,1181,01-701-1181,Xanomeline High Dose,81,Xanomeline High Dose,81,2013-12-05,2013-12-09,79,65-80,2,WHITE,1,F,N,Y,Y,Week 2,2,NA,NA,,NA,DERIVED,Transaminase 1.5 x ULN,TRANSHY,5,HYLAW,0,0,NA,NA,NA,NA,NA,NA,,Normal to Normal,1,,,NA
CDISCPILOT01,1181,01-701-1181,Xanomeline High Dose,81,Xanomeline High Dose,81,2013-12-05,2013-12-09,79,65-80,2,WHITE,1,F,N,Y,Y,Week 2,2,NA,NA,,NA,DERIVED,Total Bili 1.5 x ULN and Transaminase 1.5 x ULN,HYLAW,6,HYLAW,0,0,NA,NA,NA,NA,NA,NA,,Normal to Normal,1,,,NA
CDISCPILOT01,1188,01-701-1188,Xanomeline Low Dose,54,Xanomeline Low Dose,54,2013-02-15,2013-03-24,71,65-80,2,WHITE,1,M,N,Y,Y,Baseline,0,-12,2013-02-03,SCREENING 1,1,,Alanine Aminotransferase (U/L),ALT,1,CHEM,21,21,6,35,3.5,0.6,3.5,0.6,Y,,NA,R2A1HI > 1.5,N,0
CDISCPILOT01,1188,01-701-1188,Xanomeline Low Dose,54,Xanomeline Low Dose,54,2013-02-15,2013-03-24,71,65-80,2,WHITE,1,M,N,Y,Y,Baseline,0,-12,2013-02-03,SCREENING 1,1,,Aspartate Aminotransferase (U/L),AST,2,CHEM,17,17,11,36,1.54545454545455,0.472222222222222,1.54545454545455,0.472222222222222,Y,,NA,R2A1HI > 1.5,N,0
CDISCPILOT01,1188,01-701-1188,Xanomeline Low Dose,54,Xanomeline Low Dose,54,2013-02-15,2013-03-24,71,65-80,2,WHITE,1,M,N,Y,Y,Baseline,0,-12,2013-02-03,SCREENING 1,1,,Bilirubin (umol/L),BILI,3,CHEM,6.84,6.84,3,21,2.28,0.325714285714286,2.28,0.325714285714286,Y,,NA,R2A1HI > 1.5,N,0
CDISCPILOT01,1188,01-701-1188,Xanomeline Low Dose,54,Xanomeline Low Dose,54,2013-02-15,2013-03-24,71,65-80,2,WHITE,1,M,N,Y,Y,Baseline,0,NA,NA,,NA,DERIVED,Bilirubin 1.5 x ULN,BILIHY,4,HYLAW,0,0,NA,NA,NA,NA,NA,NA,Y,Normal to Normal,1,,,NA
CDISCPILOT01,1188,01-701-1188,Xanomeline Low Dose,54,Xanomeline Low Dose,54,2013-02-15,2013-03-24,71,65-80,2,WHITE,1,M,N,Y,Y,Baseline,0,NA,NA,,NA,DERIVED,Transaminase 1.5 x ULN,TRANSHY,5,HYLAW,0,0,NA,NA,NA,NA,NA,NA,Y,Normal to Normal,1,,,NA
CDISCPILOT01,1188,01-701-1188,Xanomeline Low Dose,54,Xanomeline Low Dose,54,2013-02-15,2013-03-24,71,65-80,2,WHITE,1,M,N,Y,Y,Baseline,0,NA,NA,,NA,DERIVED,Total Bili 1.5 x ULN and Transaminase 1.5 x ULN,HYLAW,6,HYLAW,0,0,NA,NA,NA,NA,NA,NA,Y,Normal to Normal,1,,,NA
CDISCPILOT01,1188,01-701-1188,Xanomeline Low Dose,54,Xanomeline Low Dose,54,2013-02-15,2013-03-24,71,65-80,2,WHITE,1,M,N,Y,Y,Week 2,2,16,2013-03-02,WEEK 2,4,,Alanine Aminotransferase (U/L),ALT,1,CHEM,29,21,6,35,4.83333333333333,0.828571428571429,3.5,0.6,,,NA,R2A1HI > 1.5,N,0
CDISCPILOT01,1188,01-701-1188,Xanomeline Low Dose,54,Xanomeline Low Dose,54,2013-02-15,2013-03-24,71,65-80,2,WHITE,1,M,N,Y,Y,Week 2,2,16,2013-03-02,WEEK 2,4,,Aspartate Aminotransferase (U/L),AST,2,CHEM,20,17,11,36,1.81818181818182,0.555555555555556,1.54545454545455,0.472222222222222,,,NA,R2A1HI > 1.5,N,0
CDISCPILOT01,1188,01-701-1188,Xanomeline Low Dose,54,Xanomeline Low Dose,54,2013-02-15,2013-03-24,71,65-80,2,WHITE,1,M,N,Y,Y,Week 2,2,16,2013-03-02,WEEK 2,4,,Bilirubin (umol/L),BILI,3,CHEM,8.55,6.84,3,21,2.85,0.407142857142857,2.28,0.325714285714286,,,NA,R2A1HI > 1.5,N,0
CDISCPILOT01,1188,01-701-1188,Xanomeline Low Dose,54,Xanomeline Low Dose,54,2013-02-15,2013-03-24,71,65-80,2,WHITE,1,M,N,Y,Y,Week 2,2,NA,NA,,NA,DERIVED,Bilirubin 1.5 x ULN,BILIHY,4,HYLAW,0,0,NA,NA,NA,NA,NA,NA,,Normal to Normal,1,,,NA
CDISCPILOT01,1188,01-701-1188,Xanomeline Low Dose,54,Xanomeline Low Dose,54,2013-02-15,2013-03-24,71,65-80,2,WHITE,1,M,N,Y,Y,Week 2,2,NA,NA,,NA,DERIVED,Transaminase 1.5 x ULN,TRANSHY,5,HYLAW,0,0,NA,NA,NA,NA,NA,NA,,Normal to Normal,1,,,NA
CDISCPILOT01,1188,01-701-1188,Xanomeline Low Dose,54,Xanomeline Low Dose,54,2013-02-15,2013-03-24,71,65-80,2,WHITE,1,M,N,Y,Y,Week 2,2,NA,NA,,NA,DERIVED,Total Bili 1.5 x ULN and Transaminase 1.5 x ULN,HYLAW,6,HYLAW,0,0,NA,NA,NA,NA,NA,NA,,Normal to Normal,1,,,NA
CDISCPILOT01,1188,01-701-1188,Xanomeline Low Dose,54,Xanomeline Low Dose,54,2013-02-15,2013-03-24,71,65-80,2,WHITE,1,M,N,Y,Y,Week 4,4,30,2013-03-16,WEEK 4,5,,Alanine Aminotransferase (U/L),ALT,1,CHEM,23,21,6,35,3.83333333333333,0.657142857142857,3.5,0.6,,,NA,R2A1HI > 1.5,N,0
CDISCPILOT01,1188,01-701-1188,Xanomeline Low Dose,54,Xanomeline Low Dose,54,2013-02-15,2013-03-24,71,65-80,2,WHITE,1,M,N,Y,Y,Week 4,4,30,2013-03-16,WEEK 4,5,,Aspartate Aminotransferase (U/L),AST,2,CHEM,17,17,11,36,1.54545454545455,0.472222222222222,1.54545454545455,0.472222222222222,,,NA,R2A1HI > 1.5,N,0
CDISCPILOT01,1188,01-701-1188,Xanomeline Low Dose,54,Xanomeline Low Dose,54,2013-02-15,2013-03-24,71,65-80,2,WHITE,1,M,N,Y,Y,Week 4,4,30,2013-03-16,WEEK 4,5,,Bilirubin (umol/L),BILI,3,CHEM,8.55,6.84,3,21,2.85,0.407142857142857,2.28,0.325714285714286,,,NA,R2A1HI > 1.5,N,0
CDISCPILOT01,1188,01-701-1188,Xanomeline Low Dose,54,Xanomeline Low Dose,54,2013-02-15,2013-03-24,71,65-80,2,WHITE,1,M,N,Y,Y,Week 4,4,NA,NA,,NA,DERIVED,Bilirubin 1.5 x ULN,BILIHY,4,HYLAW,0,0,NA,NA,NA,NA,NA,NA,,Normal to Normal,1,,,NA
CDISCPILOT01,1188,01-701-1188,Xanomeline Low Dose,54,Xanomeline Low Dose,54,2013-02-15,2013-03-24,71,65-80,2,WHITE,1,M,N,Y,Y,Week 4,4,NA,NA,,NA,DERIVED,Transaminase 1.5 x ULN,TRANSHY,5,HYLAW,0,0,NA,NA,NA,NA,NA,NA,,Normal to Normal,1,,,NA
CDISCPILOT01,1188,01-701-1188,Xanomeline Low Dose,54,Xanomeline Low Dose,54,2013-02-15,2013-03-24,71,65-80,2,WHITE,1,M,N,Y,Y,Week 4,4,NA,NA,,NA,DERIVED,Total Bili 1.5 x ULN and Transaminase 1.5 x ULN,HYLAW,6,HYLAW,0,0,NA,NA,NA,NA,NA,NA,,Normal to Normal,1,,,NA
CDISCPILOT01,1188,01-701-1188,Xanomeline Low Dose,54,Xanomeline Low Dose,54,2013-02-15,2013-03-24,71,65-80,2,WHITE,1,M,N,Y,Y,Week 6,6,39,2013-03-25,WEEK 6,7,,Alanine Aminotransferase (U/L),ALT,1,CHEM,19,21,6,35,3.16666666666667,0.542857142857143,3.5,0.6,,,NA,R2A1HI > 1.5,N,0
CDISCPILOT01,1188,01-701-1188,Xanomeline Low Dose,54,Xanomeline Low Dose,54,2013-02-15,2013-03-24,71,65-80,2,WHITE,1,M,N,Y,Y,Week 6,6,39,2013-03-25,WEEK 6,7,,Aspartate Aminotransferase (U/L),AST,2,CHEM,14,17,11,36,1.27272727272727,0.388888888888889,1.54545454545455,0.472222222222222,,,NA,R2A1HI > 1.5,N,0
CDISCPILOT01,1188,01-701-1188,Xanomeline Low Dose,54,Xanomeline Low Dose,54,2013-02-15,2013-03-24,71,65-80,2,WHITE,1,M,N,Y,Y,Week 6,6,39,2013-03-25,WEEK 6,7,,Bilirubin (umol/L),BILI,3,CHEM,6.84,6.84,3,21,2.28,0.325714285714286,2.28,0.325714285714286,,,NA,R2A1HI > 1.5,N,0
CDISCPILOT01,1188,01-701-1188,Xanomeline Low Dose,54,Xanomeline Low Dose,54,2013-02-15,2013-03-24,71,65-80,2,WHITE,1,M,N,Y,Y,Week 6,6,NA,NA,,NA,DERIVED,Bilirubin 1.5 x ULN,BILIHY,4,HYLAW,0,0,NA,NA,NA,NA,NA,NA,,Normal to Normal,1,,,NA
CDISCPILOT01,1188,01-701-1188,Xanomeline Low Dose,54,Xanomeline Low Dose,54,2013-02-15,2013-03-24,71,65-80,2,WHITE,1,M,N,Y,Y,Week 6,6,NA,NA,,NA,DERIVED,Transaminase 1.5 x ULN,TRANSHY,5,HYLAW,0,0,NA,NA,NA,NA,NA,NA,,Normal to Normal,1,,,NA
CDISCPILOT01,1188,01-701-1188,Xanomeline Low Dose,54,Xanomeline Low Dose,54,2013-02-15,2013-03-24,71,65-80,2,WHITE,1,M,N,Y,Y,Week 6,6,NA,NA,,NA,DERIVED,Total Bili 1.5 x ULN and Transaminase 1.5 x ULN,HYLAW,6,HYLAW,0,0,NA,NA,NA,NA,NA,NA,,Normal to Normal,1,,,NA
CDISCPILOT01,1192,01-701-1192,Xanomeline Low Dose,54,Xanomeline Low Dose,54,2012-07-22,2013-01-20,80,65-80,2,WHITE,1,F,Y,,Y,Baseline,0,-14,2012-07-08,SCREENING 1,1,,Alanine Aminotransferase (U/L),ALT,1,CHEM,17,17,6,32,2.83333333333333,0.53125,2.83333333333333,0.53125,Y,,NA,R2A1HI > 1.5,N,0
CDISCPILOT01,1192,01-701-1192,Xanomeline Low Dose,54,Xanomeline Low Dose,54,2012-07-22,2013-01-20,80,65-80,2,WHITE,1,F,Y,,Y,Baseline,0,-14,2012-07-08,SCREENING 1,1,,Aspartate Aminotransferase (U/L),AST,2,CHEM,18,18,9,34,2,0.529411764705882,2,0.529411764705882,Y,,NA,R2A1HI > 1.5,N,0
CDISCPILOT01,1192,01-701-1192,Xanomeline Low Dose,54,Xanomeline Low Dose,54,2012-07-22,2013-01-20,80,65-80,2,WHITE,1,F,Y,,Y,Baseline,0,-14,2012-07-08,SCREENING 1,1,,Bilirubin (umol/L),BILI,3,CHEM,11.97,11.97,3,21,3.99,0.57,3.99,0.57,Y,,NA,R2A1HI > 1.5,N,0
CDISCPILOT01,1192,01-701-1192,Xanomeline Low Dose,54,Xanomeline Low Dose,54,2012-07-22,2013-01-20,80,65-80,2,WHITE,1,F,Y,,Y,Baseline,0,NA,NA,,NA,DERIVED,Bilirubin 1.5 x ULN,BILIHY,4,HYLAW,0,0,NA,NA,NA,NA,NA,NA,Y,Normal to Normal,1,,,NA
CDISCPILOT01,1192,01-701-1192,Xanomeline Low Dose,54,Xanomeline Low Dose,54,2012-07-22,2013-01-20,80,65-80,2,WHITE,1,F,Y,,Y,Baseline,0,NA,NA,,NA,DERIVED,Transaminase 1.5 x ULN,TRANSHY,5,HYLAW,0,0,NA,NA,NA,NA,NA,NA,Y,Normal to Normal,1,,,NA
CDISCPILOT01,1192,01-701-1192,Xanomeline Low Dose,54,Xanomeline Low Dose,54,2012-07-22,2013-01-20,80,65-80,2,WHITE,1,F,Y,,Y,Baseline,0,NA,NA,,NA,DERIVED,Total Bili 1.5 x ULN and Transaminase 1.5 x ULN,HYLAW,6,HYLAW,0,0,NA,NA,NA,NA,NA,NA,Y,Normal to Normal,1,,,NA
CDISCPILOT01,1192,01-701-1192,Xanomeline Low Dose,54,Xanomeline Low Dose,54,2012-07-22,2013-01-20,80,65-80,2,WHITE,1,F,Y,,Y,Week 2,2,17,2012-08-07,WEEK 2,4,,Alanine Aminotransferase (U/L),ALT,1,CHEM,15,17,6,32,2.5,0.46875,2.83333333333333,0.53125,,,NA,R2A1HI > 1.5,N,0
CDISCPILOT01,1192,01-701-1192,Xanomeline Low Dose,54,Xanomeline Low Dose,54,2012-07-22,2013-01-20,80,65-80,2,WHITE,1,F,Y,,Y,Week 2,2,17,2012-08-07,WEEK 2,4,,Aspartate Aminotransferase (U/L),AST,2,CHEM,20,18,9,34,2.22222222222222,0.588235294117647,2,0.529411764705882,,,NA,R2A1HI > 1.5,N,0
CDISCPILOT01,1192,01-701-1192,Xanomeline Low Dose,54,Xanomeline Low Dose,54,2012-07-22,2013-01-20,80,65-80,2,WHITE,1,F,Y,,Y,Week 2,2,17,2012-08-07,WEEK 2,4,,Bilirubin (umol/L),BILI,3,CHEM,11.97,11.97,3,21,3.99,0.57,3.99,0.57,,,NA,R2A1HI > 1.5,N,0
CDISCPILOT01,1192,01-701-1192,Xanomeline Low Dose,54,Xanomeline Low Dose,54,2012-07-22,2013-01-20,80,65-80,2,WHITE,1,F,Y,,Y,Week 2,2,NA,NA,,NA,DERIVED,Bilirubin 1.5 x ULN,BILIHY,4,HYLAW,0,0,NA,NA,NA,NA,NA,NA,,Normal to Normal,1,,,NA
CDISCPILOT01,1192,01-701-1192,Xanomeline Low Dose,54,Xanomeline Low Dose,54,2012-07-22,2013-01-20,80,65-80,2,WHITE,1,F,Y,,Y,Week 2,2,NA,NA,,NA,DERIVED,Transaminase 1.5 x ULN,TRANSHY,5,HYLAW,0,0,NA,NA,NA,NA,NA,NA,,Normal to Normal,1,,,NA
CDISCPILOT01,1192,01-701-1192,Xanomeline Low Dose,54,Xanomeline Low Dose,54,2012-07-22,2013-01-20,80,65-80,2,WHITE,1,F,Y,,Y,Week 2,2,NA,NA,,NA,DERIVED,Total Bili 1.5 x ULN and Transaminase 1.5 x ULN,HYLAW,6,HYLAW,0,0,NA,NA,NA,NA,NA,NA,,Normal to Normal,1,,,NA
CDISCPILOT01,1192,01-701-1192,Xanomeline Low Dose,54,Xanomeline Low Dose,54,2012-07-22,2013-01-20,80,65-80,2,WHITE,1,F,Y,,Y,Week 4,4,31,2012-08-21,WEEK 4,5,,Alanine Aminotransferase (U/L),ALT,1,CHEM,14,17,6,32,2.33333333333333,0.4375,2.83333333333333,0.53125,,,NA,R2A1HI > 1.5,N,0
CDISCPILOT01,1192,01-701-1192,Xanomeline Low Dose,54,Xanomeline Low Dose,54,2012-07-22,2013-01-20,80,65-80,2,WHITE,1,F,Y,,Y,Week 4,4,31,2012-08-21,WEEK 4,5,,Aspartate Aminotransferase (U/L),AST,2,CHEM,20,18,9,34,2.22222222222222,0.588235294117647,2,0.529411764705882,,,NA,R2A1HI > 1.5,N,0
CDISCPILOT01,1192,01-701-1192,Xanomeline Low Dose,54,Xanomeline Low Dose,54,2012-07-22,2013-01-20,80,65-80,2,WHITE,1,F,Y,,Y,Week 4,4,31,2012-08-21,WEEK 4,5,,Bilirubin (umol/L),BILI,3,CHEM,10.26,11.97,3,21,3.42,0.488571428571429,3.99,0.57,,,NA,R2A1HI > 1.5,N,0
CDISCPILOT01,1192,01-701-1192,Xanomeline Low Dose,54,Xanomeline Low Dose,54,2012-07-22,2013-01-20,80,65-80,2,WHITE,1,F,Y,,Y,Week 4,4,NA,NA,,NA,DERIVED,Bilirubin 1.5 x ULN,BILIHY,4,HYLAW,0,0,NA,NA,NA,NA,NA,NA,,Normal to Normal,1,,,NA
CDISCPILOT01,1192,01-701-1192,Xanomeline Low Dose,54,Xanomeline Low Dose,54,2012-07-22,2013-01-20,80,65-80,2,WHITE,1,F,Y,,Y,Week 4,4,NA,NA,,NA,DERIVED,Transaminase 1.5 x ULN,TRANSHY,5,HYLAW,0,0,NA,NA,NA,NA,NA,NA,,Normal to Normal,1,,,NA
CDISCPILOT01,1192,01-701-1192,Xanomeline Low Dose,54,Xanomeline Low Dose,54,2012-07-22,2013-01-20,80,65-80,2,WHITE,1,F,Y,,Y,Week 4,4,NA,NA,,NA,DERIVED,Total Bili 1.5 x ULN and Transaminase 1.5 x ULN,HYLAW,6,HYLAW,0,0,NA,NA,NA,NA,NA,NA,,Normal to Normal,1,,,NA
CDISCPILOT01,1192,01-701-1192,Xanomeline Low Dose,54,Xanomeline Low Dose,54,2012-07-22,2013-01-20,80,65-80,2,WHITE,1,F,Y,,Y,Week 6,6,45,2012-09-04,WEEK 6,7,,Alanine Aminotransferase (U/L),ALT,1,CHEM,12,17,6,32,2,0.375,2.83333333333333,0.53125,,,NA,R2A1HI > 1.5,N,0
CDISCPILOT01,1192,01-701-1192,Xanomeline Low Dose,54,Xanomeline Low Dose,54,2012-07-22,2013-01-20,80,65-80,2,WHITE,1,F,Y,,Y,Week 6,6,45,2012-09-04,WEEK 6,7,,Aspartate Aminotransferase (U/L),AST,2,CHEM,15,18,9,34,1.66666666666667,0.441176470588235,2,0.529411764705882,,,NA,R2A1HI > 1.5,N,0
CDISCPILOT01,1192,01-701-1192,Xanomeline Low Dose,54,Xanomeline Low Dose,54,2012-07-22,2013-01-20,80,65-80,2,WHITE,1,F,Y,,Y,Week 6,6,45,2012-09-04,WEEK 6,7,,Bilirubin (umol/L),BILI,3,CHEM,8.55,11.97,3,21,2.85,0.407142857142857,3.99,0.57,,,NA,R2A1HI > 1.5,N,0
CDISCPILOT01,1192,01-701-1192,Xanomeline Low Dose,54,Xanomeline Low Dose,54,2012-07-22,2013-01-20,80,65-80,2,WHITE,1,F,Y,,Y,Week 6,6,NA,NA,,NA,DERIVED,Bilirubin 1.5 x ULN,BILIHY,4,HYLAW,0,0,NA,NA,NA,NA,NA,NA,,Normal to Normal,1,,,NA
CDISCPILOT01,1192,01-701-1192,Xanomeline Low Dose,54,Xanomeline Low Dose,54,2012-07-22,2013-01-20,80,65-80,2,WHITE,1,F,Y,,Y,Week 6,6,NA,NA,,NA,DERIVED,Transaminase 1.5 x ULN,TRANSHY,5,HYLAW,0,0,NA,NA,NA,NA,NA,NA,,Normal to Normal,1,,,NA
CDISCPILOT01,1192,01-701-1192,Xanomeline Low Dose,54,Xanomeline Low Dose,54,2012-07-22,2013-01-20,80,65-80,2,WHITE,1,F,Y,,Y,Week 6,6,NA,NA,,NA,DERIVED,Total Bili 1.5 x ULN and Transaminase 1.5 x ULN,HYLAW,6,HYLAW,0,0,NA,NA,NA,NA,NA,NA,,Normal to Normal,1,,,NA
CDISCPILOT01,1192,01-701-1192,Xanomeline Low Dose,54,Xanomeline Low Dose,54,2012-07-22,2013-01-20,80,65-80,2,WHITE,1,F,Y,,Y,Week 8,8,64,2012-09-23,WEEK 8,8,,Alanine Aminotransferase (U/L),ALT,1,CHEM,19,17,6,32,3.16666666666667,0.59375,2.83333333333333,0.53125,,,NA,R2A1HI > 1.5,N,0
CDISCPILOT01,1192,01-701-1192,Xanomeline Low Dose,54,Xanomeline Low Dose,54,2012-07-22,2013-01-20,80,65-80,2,WHITE,1,F,Y,,Y,Week 8,8,64,2012-09-23,WEEK 8,8,,Aspartate Aminotransferase (U/L),AST,2,CHEM,23,18,9,34,2.55555555555556,0.676470588235294,2,0.529411764705882,,,NA,R2A1HI > 1.5,N,0
CDISCPILOT01,1192,01-701-1192,Xanomeline Low Dose,54,Xanomeline Low Dose,54,2012-07-22,2013-01-20,80,65-80,2,WHITE,1,F,Y,,Y,Week 8,8,64,2012-09-23,WEEK 8,8,,Bilirubin (umol/L),BILI,3,CHEM,8.55,11.97,3,21,2.85,0.407142857142857,3.99,0.57,,,NA,R2A1HI > 1.5,N,0
CDISCPILOT01,1192,01-701-1192,Xanomeline Low Dose,54,Xanomeline Low Dose,54,2012-07-22,2013-01-20,80,65-80,2,WHITE,1,F,Y,,Y,Week 8,8,NA,NA,,NA,DERIVED,Bilirubin 1.5 x ULN,BILIHY,4,HYLAW,0,0,NA,NA,NA,NA,NA,NA,,Normal to Normal,1,,,NA
CDISCPILOT01,1192,01-701-1192,Xanomeline Low Dose,54,Xanomeline Low Dose,54,2012-07-22,2013-01-20,80,65-80,2,WHITE,1,F,Y,,Y,Week 8,8,NA,NA,,NA,DERIVED,Transaminase 1.5 x ULN,TRANSHY,5,HYLAW,0,0,NA,NA,NA,NA,NA,NA,,Normal to Normal,1,,,NA
CDISCPILOT01,1192,01-701-1192,Xanomeline Low Dose,54,Xanomeline Low Dose,54,2012-07-22,2013-01-20,80,65-80,2,WHITE,1,F,Y,,Y,Week 8,8,NA,NA,,NA,DERIVED,Total Bili 1.5 x ULN and Transaminase 1.5 x ULN,HYLAW,6,HYLAW,0,0,NA,NA,NA,NA,NA,NA,,Normal to Normal,1,,,NA
CDISCPILOT01,1192,01-701-1192,Xanomeline Low Dose,54,Xanomeline Low Dose,54,2012-07-22,2013-01-20,80,65-80,2,WHITE,1,F,Y,,Y,Week 12,12,85,2012-10-14,WEEK 12,9,,Alanine Aminotransferase (U/L),ALT,1,CHEM,14,17,6,32,2.33333333333333,0.4375,2.83333333333333,0.53125,,,NA,R2A1HI > 1.5,N,0
CDISCPILOT01,1192,01-701-1192,Xanomeline Low Dose,54,Xanomeline Low Dose,54,2012-07-22,2013-01-20,80,65-80,2,WHITE,1,F,Y,,Y,Week 12,12,85,2012-10-14,WEEK 12,9,,Aspartate Aminotransferase (U/L),AST,2,CHEM,19,18,9,34,2.11111111111111,0.558823529411765,2,0.529411764705882,,,NA,R2A1HI > 1.5,N,0
CDISCPILOT01,1192,01-701-1192,Xanomeline Low Dose,54,Xanomeline Low Dose,54,2012-07-22,2013-01-20,80,65-80,2,WHITE,1,F,Y,,Y,Week 12,12,85,2012-10-14,WEEK 12,9,,Bilirubin (umol/L),BILI,3,CHEM,10.26,11.97,3,21,3.42,0.488571428571429,3.99,0.57,,,NA,R2A1HI > 1.5,N,0
CDISCPILOT01,1192,01-701-1192,Xanomeline Low Dose,54,Xanomeline Low Dose,54,2012-07-22,2013-01-20,80,65-80,2,WHITE,1,F,Y,,Y,Week 12,12,NA,NA,,NA,DERIVED,Bilirubin 1.5 x ULN,BILIHY,4,HYLAW,0,0,NA,NA,NA,NA,NA,NA,,Normal to Normal,1,,,NA
CDISCPILOT01,1192,01-701-1192,Xanomeline Low Dose,54,Xanomeline Low Dose,54,2012-07-22,2013-01-20,80,65-80,2,WHITE,1,F,Y,,Y,Week 12,12,NA,NA,,NA,DERIVED,Transaminase 1.5 x ULN,TRANSHY,5,HYLAW,0,0,NA,NA,NA,NA,NA,NA,,Normal to Normal,1,,,NA
CDISCPILOT01,1192,01-701-1192,Xanomeline Low Dose,54,Xanomeline Low Dose,54,2012-07-22,2013-01-20,80,65-80,2,WHITE,1,F,Y,,Y,Week 12,12,NA,NA,,NA,DERIVED,Total Bili 1.5 x ULN and Transaminase 1.5 x ULN,HYLAW,6,HYLAW,0,0,NA,NA,NA,NA,NA,NA,,Normal to Normal,1,,,NA
CDISCPILOT01,1192,01-701-1192,Xanomeline Low Dose,54,Xanomeline Low Dose,54,2012-07-22,2013-01-20,80,65-80,2,WHITE,1,F,Y,,Y,Week 16,16,117,2012-11-15,WEEK 16,10,,Alanine Aminotransferase (U/L),ALT,1,CHEM,13,17,6,32,2.16666666666667,0.40625,2.83333333333333,0.53125,,,NA,R2A1HI > 1.5,N,0
CDISCPILOT01,1192,01-701-1192,Xanomeline Low Dose,54,Xanomeline Low Dose,54,2012-07-22,2013-01-20,80,65-80,2,WHITE,1,F,Y,,Y,Week 16,16,117,2012-11-15,WEEK 16,10,,Aspartate Aminotransferase (U/L),AST,2,CHEM,20,18,9,34,2.22222222222222,0.588235294117647,2,0.529411764705882,,,NA,R2A1HI > 1.5,N,0
CDISCPILOT01,1192,01-701-1192,Xanomeline Low Dose,54,Xanomeline Low Dose,54,2012-07-22,2013-01-20,80,65-80,2,WHITE,1,F,Y,,Y,Week 16,16,117,2012-11-15,WEEK 16,10,,Bilirubin (umol/L),BILI,3,CHEM,10.26,11.97,3,21,3.42,0.488571428571429,3.99,0.57,,,NA,R2A1HI > 1.5,N,0
CDISCPILOT01,1192,01-701-1192,Xanomeline Low Dose,54,Xanomeline Low Dose,54,2012-07-22,2013-01-20,80,65-80,2,WHITE,1,F,Y,,Y,Week 16,16,NA,NA,,NA,DERIVED,Bilirubin 1.5 x ULN,BILIHY,4,HYLAW,0,0,NA,NA,NA,NA,NA,NA,,Normal to Normal,1,,,NA
CDISCPILOT01,1192,01-701-1192,Xanomeline Low Dose,54,Xanomeline Low Dose,54,2012-07-22,2013-01-20,80,65-80,2,WHITE,1,F,Y,,Y,Week 16,16,NA,NA,,NA,DERIVED,Transaminase 1.5 x ULN,TRANSHY,5,HYLAW,0,0,NA,NA,NA,NA,NA,NA,,Normal to Normal,1,,,NA
CDISCPILOT01,1192,01-701-1192,Xanomeline Low Dose,54,Xanomeline Low Dose,54,2012-07-22,2013-01-20,80,65-80,2,WHITE,1,F,Y,,Y,Week 16,16,NA,NA,,NA,DERIVED,Total Bili 1.5 x ULN and Transaminase 1.5 x ULN,HYLAW,6,HYLAW,0,0,NA,NA,NA,NA,NA,NA,,Normal to Normal,1,,,NA
CDISCPILOT01,1192,01-701-1192,Xanomeline Low Dose,54,Xanomeline Low Dose,54,2012-07-22,2013-01-20,80,65-80,2,WHITE,1,F,Y,,Y,Week 20,20,145,2012-12-13,WEEK 20,11,,Alanine Aminotransferase (U/L),ALT,1,CHEM,15,17,6,32,2.5,0.46875,2.83333333333333,0.53125,,,NA,R2A1HI > 1.5,N,0
CDISCPILOT01,1192,01-701-1192,Xanomeline Low Dose,54,Xanomeline Low Dose,54,2012-07-22,2013-01-20,80,65-80,2,WHITE,1,F,Y,,Y,Week 20,20,145,2012-12-13,WEEK 20,11,,Aspartate Aminotransferase (U/L),AST,2,CHEM,19,18,9,34,2.11111111111111,0.558823529411765,2,0.529411764705882,,,NA,R2A1HI > 1.5,N,0
CDISCPILOT01,1192,01-701-1192,Xanomeline Low Dose,54,Xanomeline Low Dose,54,2012-07-22,2013-01-20,80,65-80,2,WHITE,1,F,Y,,Y,Week 20,20,145,2012-12-13,WEEK 20,11,,Bilirubin (umol/L),BILI,3,CHEM,10.26,11.97,3,21,3.42,0.488571428571429,3.99,0.57,,,NA,R2A1HI > 1.5,N,0
CDISCPILOT01,1192,01-701-1192,Xanomeline Low Dose,54,Xanomeline Low Dose,54,2012-07-22,2013-01-20,80,65-80,2,WHITE,1,F,Y,,Y,Week 20,20,NA,NA,,NA,DERIVED,Bilirubin 1.5 x ULN,BILIHY,4,HYLAW,0,0,NA,NA,NA,NA,NA,NA,,Normal to Normal,1,,,NA
CDISCPILOT01,1192,01-701-1192,Xanomeline Low Dose,54,Xanomeline Low Dose,54,2012-07-22,2013-01-20,80,65-80,2,WHITE,1,F,Y,,Y,Week 20,20,NA,NA,,NA,DERIVED,Transaminase 1.5 x ULN,TRANSHY,5,HYLAW,0,0,NA,NA,NA,NA,NA,NA,,Normal to Normal,1,,,NA
CDISCPILOT01,1192,01-701-1192,Xanomeline Low Dose,54,Xanomeline Low Dose,54,2012-07-22,2013-01-20,80,65-80,2,WHITE,1,F,Y,,Y,Week 20,20,NA,NA,,NA,DERIVED,Total Bili 1.5 x ULN and Transaminase 1.5 x ULN,HYLAW,6,HYLAW,0,0,NA,NA,NA,NA,NA,NA,,Normal to Normal,1,,,NA
CDISCPILOT01,1192,01-701-1192,Xanomeline Low Dose,54,Xanomeline Low Dose,54,2012-07-22,2013-01-20,80,65-80,2,WHITE,1,F,Y,,Y,Week 24,24,174,2013-01-11,WEEK 24,12,,Alanine Aminotransferase (U/L),ALT,1,CHEM,19,17,6,32,3.16666666666667,0.59375,2.83333333333333,0.53125,,,NA,R2A1HI > 1.5,N,0
CDISCPILOT01,1192,01-701-1192,Xanomeline Low Dose,54,Xanomeline Low Dose,54,2012-07-22,2013-01-20,80,65-80,2,WHITE,1,F,Y,,Y,Week 24,24,174,2013-01-11,WEEK 24,12,,Aspartate Aminotransferase (U/L),AST,2,CHEM,24,18,9,34,2.66666666666667,0.705882352941177,2,0.529411764705882,,,NA,R2A1HI > 1.5,N,0
CDISCPILOT01,1192,01-701-1192,Xanomeline Low Dose,54,Xanomeline Low Dose,54,2012-07-22,2013-01-20,80,65-80,2,WHITE,1,F,Y,,Y,Week 24,24,174,2013-01-11,WEEK 24,12,,Bilirubin (umol/L),BILI,3,CHEM,8.55,11.97,3,21,2.85,0.407142857142857,3.99,0.57,,,NA,R2A1HI > 1.5,N,0
CDISCPILOT01,1192,01-701-1192,Xanomeline Low Dose,54,Xanomeline Low Dose,54,2012-07-22,2013-01-20,80,65-80,2,WHITE,1,F,Y,,Y,Week 24,24,NA,NA,,NA,DERIVED,Bilirubin 1.5 x ULN,BILIHY,4,HYLAW,0,0,NA,NA,NA,NA,NA,NA,,Normal to Normal,1,,,NA
CDISCPILOT01,1192,01-701-1192,Xanomeline Low Dose,54,Xanomeline Low Dose,54,2012-07-22,2013-01-20,80,65-80,2,WHITE,1,F,Y,,Y,Week 24,24,NA,NA,,NA,DERIVED,Transaminase 1.5 x ULN,TRANSHY,5,HYLAW,0,0,NA,NA,NA,NA,NA,NA,,Normal to Normal,1,,,NA
CDISCPILOT01,1192,01-701-1192,Xanomeline Low Dose,54,Xanomeline Low Dose,54,2012-07-22,2013-01-20,80,65-80,2,WHITE,1,F,Y,,Y,Week 24,24,NA,NA,,NA,DERIVED,Total Bili 1.5 x ULN and Transaminase 1.5 x ULN,HYLAW,6,HYLAW,0,0,NA,NA,NA,NA,NA,NA,,Normal to Normal,1,,,NA
CDISCPILOT01,1203,01-701-1203,Placebo,0,Placebo,0,2013-02-02,2013-08-03,81,>80,3,BLACK OR AFRICAN AMERICAN,2,F,Y,,Y,Baseline,0,-8,2013-01-25,SCREENING 1,1,,Alanine Aminotransferase (U/L),ALT,1,CHEM,13,13,6,32,2.16666666666667,0.40625,2.16666666666667,0.40625,Y,,NA,R2A1HI > 1.5,N,0
CDISCPILOT01,1203,01-701-1203,Placebo,0,Placebo,0,2013-02-02,2013-08-03,81,>80,3,BLACK OR AFRICAN AMERICAN,2,F,Y,,Y,Baseline,0,-8,2013-01-25,SCREENING 1,1,,Aspartate Aminotransferase (U/L),AST,2,CHEM,20,20,9,34,2.22222222222222,0.588235294117647,2.22222222222222,0.588235294117647,Y,,NA,R2A1HI > 1.5,N,0
CDISCPILOT01,1203,01-701-1203,Placebo,0,Placebo,0,2013-02-02,2013-08-03,81,>80,3,BLACK OR AFRICAN AMERICAN,2,F,Y,,Y,Baseline,0,-8,2013-01-25,SCREENING 1,1,,Bilirubin (umol/L),BILI,3,CHEM,5.13,5.13,3,21,1.71,0.244285714285714,1.71,0.244285714285714,Y,,NA,R2A1HI > 1.5,N,0
CDISCPILOT01,1203,01-701-1203,Placebo,0,Placebo,0,2013-02-02,2013-08-03,81,>80,3,BLACK OR AFRICAN AMERICAN,2,F,Y,,Y,Baseline,0,NA,NA,,NA,DERIVED,Bilirubin 1.5 x ULN,BILIHY,4,HYLAW,0,0,NA,NA,NA,NA,NA,NA,Y,Normal to Normal,1,,,NA
CDISCPILOT01,1203,01-701-1203,Placebo,0,Placebo,0,2013-02-02,2013-08-03,81,>80,3,BLACK OR AFRICAN AMERICAN,2,F,Y,,Y,Baseline,0,NA,NA,,NA,DERIVED,Transaminase 1.5 x ULN,TRANSHY,5,HYLAW,0,0,NA,NA,NA,NA,NA,NA,Y,Normal to Normal,1,,,NA
CDISCPILOT01,1203,01-701-1203,Placebo,0,Placebo,0,2013-02-02,2013-08-03,81,>80,3,BLACK OR AFRICAN AMERICAN,2,F,Y,,Y,Baseline,0,NA,NA,,NA,DERIVED,Total Bili 1.5 x ULN and Transaminase 1.5 x ULN,HYLAW,6,HYLAW,0,0,NA,NA,NA,NA,NA,NA,Y,Normal to Normal,1,,,NA
CDISCPILOT01,1203,01-701-1203,Placebo,0,Placebo,0,2013-02-02,2013-08-03,81,>80,3,BLACK OR AFRICAN AMERICAN,2,F,Y,,Y,Week 2,2,22,2013-02-23,WEEK 2,4,,Alanine Aminotransferase (U/L),ALT,1,CHEM,14,13,6,32,2.33333333333333,0.4375,2.16666666666667,0.40625,,,NA,R2A1HI > 1.5,N,0
CDISCPILOT01,1203,01-701-1203,Placebo,0,Placebo,0,2013-02-02,2013-08-03,81,>80,3,BLACK OR AFRICAN AMERICAN,2,F,Y,,Y,Week 2,2,22,2013-02-23,WEEK 2,4,,Aspartate Aminotransferase (U/L),AST,2,CHEM,20,20,9,34,2.22222222222222,0.588235294117647,2.22222222222222,0.588235294117647,,,NA,R2A1HI > 1.5,N,0
CDISCPILOT01,1203,01-701-1203,Placebo,0,Placebo,0,2013-02-02,2013-08-03,81,>80,3,BLACK OR AFRICAN AMERICAN,2,F,Y,,Y,Week 2,2,22,2013-02-23,WEEK 2,4,,Bilirubin (umol/L),BILI,3,CHEM,5.13,5.13,3,21,1.71,0.244285714285714,1.71,0.244285714285714,,,NA,R2A1HI > 1.5,N,0
CDISCPILOT01,1203,01-701-1203,Placebo,0,Placebo,0,2013-02-02,2013-08-03,81,>80,3,BLACK OR AFRICAN AMERICAN,2,F,Y,,Y,Week 2,2,NA,NA,,NA,DERIVED,Bilirubin 1.5 x ULN,BILIHY,4,HYLAW,0,0,NA,NA,NA,NA,NA,NA,,Normal to Normal,1,,,NA
CDISCPILOT01,1203,01-701-1203,Placebo,0,Placebo,0,2013-02-02,2013-08-03,81,>80,3,BLACK OR AFRICAN AMERICAN,2,F,Y,,Y,Week 2,2,NA,NA,,NA,DERIVED,Transaminase 1.5 x ULN,TRANSHY,5,HYLAW,0,0,NA,NA,NA,NA,NA,NA,,Normal to Normal,1,,,NA
CDISCPILOT01,1203,01-701-1203,Placebo,0,Placebo,0,2013-02-02,2013-08-03,81,>80,3,BLACK OR AFRICAN AMERICAN,2,F,Y,,Y,Week 2,2,NA,NA,,NA,DERIVED,Total Bili 1.5 x ULN and Transaminase 1.5 x ULN,HYLAW,6,HYLAW,0,0,NA,NA,NA,NA,NA,NA,,Normal to Normal,1,,,NA
CDISCPILOT01,1203,01-701-1203,Placebo,0,Placebo,0,2013-02-02,2013-08-03,81,>80,3,BLACK OR AFRICAN AMERICAN,2,F,Y,,Y,Week 4,4,29,2013-03-02,WEEK 4,5,,Alanine Aminotransferase (U/L),ALT,1,CHEM,10,13,6,32,1.66666666666667,0.3125,2.16666666666667,0.40625,,,NA,R2A1HI > 1.5,N,0
CDISCPILOT01,1203,01-701-1203,Placebo,0,Placebo,0,2013-02-02,2013-08-03,81,>80,3,BLACK OR AFRICAN AMERICAN,2,F,Y,,Y,Week 4,4,29,2013-03-02,WEEK 4,5,,Aspartate Aminotransferase (U/L),AST,2,CHEM,16,20,9,34,1.77777777777778,0.470588235294118,2.22222222222222,0.588235294117647,,,NA,R2A1HI > 1.5,N,0
CDISCPILOT01,1203,01-701-1203,Placebo,0,Placebo,0,2013-02-02,2013-08-03,81,>80,3,BLACK OR AFRICAN AMERICAN,2,F,Y,,Y,Week 4,4,29,2013-03-02,WEEK 4,5,,Bilirubin (umol/L),BILI,3,CHEM,6.84,5.13,3,21,2.28,0.325714285714286,1.71,0.244285714285714,,,NA,R2A1HI > 1.5,N,0
CDISCPILOT01,1203,01-701-1203,Placebo,0,Placebo,0,2013-02-02,2013-08-03,81,>80,3,BLACK OR AFRICAN AMERICAN,2,F,Y,,Y,Week 4,4,NA,NA,,NA,DERIVED,Bilirubin 1.5 x ULN,BILIHY,4,HYLAW,0,0,NA,NA,NA,NA,NA,NA,,Normal to Normal,1,,,NA
CDISCPILOT01,1203,01-701-1203,Placebo,0,Placebo,0,2013-02-02,2013-08-03,81,>80,3,BLACK OR AFRICAN AMERICAN,2,F,Y,,Y,Week 4,4,NA,NA,,NA,DERIVED,Transaminase 1.5 x ULN,TRANSHY,5,HYLAW,0,0,NA,NA,NA,NA,NA,NA,,Normal to Normal,1,,,NA
CDISCPILOT01,1203,01-701-1203,Placebo,0,Placebo,0,2013-02-02,2013-08-03,81,>80,3,BLACK OR AFRICAN AMERICAN,2,F,Y,,Y,Week 4,4,NA,NA,,NA,DERIVED,Total Bili 1.5 x ULN and Transaminase 1.5 x ULN,HYLAW,6,HYLAW,0,0,NA,NA,NA,NA,NA,NA,,Normal to Normal,1,,,NA
CDISCPILOT01,1203,01-701-1203,Placebo,0,Placebo,0,2013-02-02,2013-08-03,81,>80,3,BLACK OR AFRICAN AMERICAN,2,F,Y,,Y,Week 6,6,43,2013-03-16,WEEK 6,7,,Alanine Aminotransferase (U/L),ALT,1,CHEM,12,13,6,32,2,0.375,2.16666666666667,0.40625,,,NA,R2A1HI > 1.5,N,0
CDISCPILOT01,1203,01-701-1203,Placebo,0,Placebo,0,2013-02-02,2013-08-03,81,>80,3,BLACK OR AFRICAN AMERICAN,2,F,Y,,Y,Week 6,6,43,2013-03-16,WEEK 6,7,,Aspartate Aminotransferase (U/L),AST,2,CHEM,23,20,9,34,2.55555555555556,0.676470588235294,2.22222222222222,0.588235294117647,,,NA,R2A1HI > 1.5,N,0
CDISCPILOT01,1203,01-701-1203,Placebo,0,Placebo,0,2013-02-02,2013-08-03,81,>80,3,BLACK OR AFRICAN AMERICAN,2,F,Y,,Y,Week 6,6,43,2013-03-16,WEEK 6,7,,Bilirubin (umol/L),BILI,3,CHEM,6.84,5.13,3,21,2.28,0.325714285714286,1.71,0.244285714285714,,,NA,R2A1HI > 1.5,N,0
CDISCPILOT01,1203,01-701-1203,Placebo,0,Placebo,0,2013-02-02,2013-08-03,81,>80,3,BLACK OR AFRICAN AMERICAN,2,F,Y,,Y,Week 6,6,NA,NA,,NA,DERIVED,Bilirubin 1.5 x ULN,BILIHY,4,HYLAW,0,0,NA,NA,NA,NA,NA,NA,,Normal to Normal,1,,,NA
CDISCPILOT01,1203,01-701-1203,Placebo,0,Placebo,0,2013-02-02,2013-08-03,81,>80,3,BLACK OR AFRICAN AMERICAN,2,F,Y,,Y,Week 6,6,NA,NA,,NA,DERIVED,Transaminase 1.5 x ULN,TRANSHY,5,HYLAW,0,0,NA,NA,NA,NA,NA,NA,,Normal to Normal,1,,,NA
CDISCPILOT01,1203,01-701-1203,Placebo,0,Placebo,0,2013-02-02,2013-08-03,81,>80,3,BLACK OR AFRICAN AMERICAN,2,F,Y,,Y,Week 6,6,NA,NA,,NA,DERIVED,Total Bili 1.5 x ULN and Transaminase 1.5 x ULN,HYLAW,6,HYLAW,0,0,NA,NA,NA,NA,NA,NA,,Normal to Normal,1,,,NA
CDISCPILOT01,1203,01-701-1203,Placebo,0,Placebo,0,2013-02-02,2013-08-03,81,>80,3,BLACK OR AFRICAN AMERICAN,2,F,Y,,Y,Week 8,8,57,2013-03-30,WEEK 8,8,,Alanine Aminotransferase (U/L),ALT,1,CHEM,11,13,6,32,1.83333333333333,0.34375,2.16666666666667,0.40625,,,NA,R2A1HI > 1.5,N,0
CDISCPILOT01,1203,01-701-1203,Placebo,0,Placebo,0,2013-02-02,2013-08-03,81,>80,3,BLACK OR AFRICAN AMERICAN,2,F,Y,,Y,Week 8,8,57,2013-03-30,WEEK 8,8,,Aspartate Aminotransferase (U/L),AST,2,CHEM,19,20,9,34,2.11111111111111,0.558823529411765,2.22222222222222,0.588235294117647,,,NA,R2A1HI > 1.5,N,0
CDISCPILOT01,1203,01-701-1203,Placebo,0,Placebo,0,2013-02-02,2013-08-03,81,>80,3,BLACK OR AFRICAN AMERICAN,2,F,Y,,Y,Week 8,8,57,2013-03-30,WEEK 8,8,,Bilirubin (umol/L),BILI,3,CHEM,6.84,5.13,3,21,2.28,0.325714285714286,1.71,0.244285714285714,,,NA,R2A1HI > 1.5,N,0
CDISCPILOT01,1203,01-701-1203,Placebo,0,Placebo,0,2013-02-02,2013-08-03,81,>80,3,BLACK OR AFRICAN AMERICAN,2,F,Y,,Y,Week 8,8,NA,NA,,NA,DERIVED,Bilirubin 1.5 x ULN,BILIHY,4,HYLAW,0,0,NA,NA,NA,NA,NA,NA,,Normal to Normal,1,,,NA
CDISCPILOT01,1203,01-701-1203,Placebo,0,Placebo,0,2013-02-02,2013-08-03,81,>80,3,BLACK OR AFRICAN AMERICAN,2,F,Y,,Y,Week 8,8,NA,NA,,NA,DERIVED,Transaminase 1.5 x ULN,TRANSHY,5,HYLAW,0,0,NA,NA,NA,NA,NA,NA,,Normal to Normal,1,,,NA
CDISCPILOT01,1203,01-701-1203,Placebo,0,Placebo,0,2013-02-02,2013-08-03,81,>80,3,BLACK OR AFRICAN AMERICAN,2,F,Y,,Y,Week 8,8,NA,NA,,NA,DERIVED,Total Bili 1.5 x ULN and Transaminase 1.5 x ULN,HYLAW,6,HYLAW,0,0,NA,NA,NA,NA,NA,NA,,Normal to Normal,1,,,NA
CDISCPILOT01,1203,01-701-1203,Placebo,0,Placebo,0,2013-02-02,2013-08-03,81,>80,3,BLACK OR AFRICAN AMERICAN,2,F,Y,,Y,Week 12,12,97,2013-05-09,WEEK 12,9,,Alanine Aminotransferase (U/L),ALT,1,CHEM,16,13,6,32,2.66666666666667,0.5,2.16666666666667,0.40625,,,NA,R2A1HI > 1.5,N,0
CDISCPILOT01,1203,01-701-1203,Placebo,0,Placebo,0,2013-02-02,2013-08-03,81,>80,3,BLACK OR AFRICAN AMERICAN,2,F,Y,,Y,Week 12,12,97,2013-05-09,WEEK 12,9,,Aspartate Aminotransferase (U/L),AST,2,CHEM,22,20,9,34,2.44444444444444,0.647058823529412,2.22222222222222,0.588235294117647,,,NA,R2A1HI > 1.5,N,0
CDISCPILOT01,1203,01-701-1203,Placebo,0,Placebo,0,2013-02-02,2013-08-03,81,>80,3,BLACK OR AFRICAN AMERICAN,2,F,Y,,Y,Week 12,12,97,2013-05-09,WEEK 12,9,,Bilirubin (umol/L),BILI,3,CHEM,5.13,5.13,3,21,1.71,0.244285714285714,1.71,0.244285714285714,,,NA,R2A1HI > 1.5,N,0
CDISCPILOT01,1203,01-701-1203,Placebo,0,Placebo,0,2013-02-02,2013-08-03,81,>80,3,BLACK OR AFRICAN AMERICAN,2,F,Y,,Y,Week 12,12,NA,NA,,NA,DERIVED,Bilirubin 1.5 x ULN,BILIHY,4,HYLAW,0,0,NA,NA,NA,NA,NA,NA,,Normal to Normal,1,,,NA
CDISCPILOT01,1203,01-701-1203,Placebo,0,Placebo,0,2013-02-02,2013-08-03,81,>80,3,BLACK OR AFRICAN AMERICAN,2,F,Y,,Y,Week 12,12,NA,NA,,NA,DERIVED,Transaminase 1.5 x ULN,TRANSHY,5,HYLAW,0,0,NA,NA,NA,NA,NA,NA,,Normal to Normal,1,,,NA
CDISCPILOT01,1203,01-701-1203,Placebo,0,Placebo,0,2013-02-02,2013-08-03,81,>80,3,BLACK OR AFRICAN AMERICAN,2,F,Y,,Y,Week 12,12,NA,NA,,NA,DERIVED,Total Bili 1.5 x ULN and Transaminase 1.5 x ULN,HYLAW,6,HYLAW,0,0,NA,NA,NA,NA,NA,NA,,Normal to Normal,1,,,NA
CDISCPILOT01,1203,01-701-1203,Placebo,0,Placebo,0,2013-02-02,2013-08-03,81,>80,3,BLACK OR AFRICAN AMERICAN,2,F,Y,,Y,Week 16,16,113,2013-05-25,WEEK 16,10,,Alanine Aminotransferase (U/L),ALT,1,CHEM,11,13,6,32,1.83333333333333,0.34375,2.16666666666667,0.40625,,,NA,R2A1HI > 1.5,N,0
CDISCPILOT01,1203,01-701-1203,Placebo,0,Placebo,0,2013-02-02,2013-08-03,81,>80,3,BLACK OR AFRICAN AMERICAN,2,F,Y,,Y,Week 16,16,113,2013-05-25,WEEK 16,10,,Aspartate Aminotransferase (U/L),AST,2,CHEM,18,20,9,34,2,0.529411764705882,2.22222222222222,0.588235294117647,,,NA,R2A1HI > 1.5,N,0
CDISCPILOT01,1203,01-701-1203,Placebo,0,Placebo,0,2013-02-02,2013-08-03,81,>80,3,BLACK OR AFRICAN AMERICAN,2,F,Y,,Y,Week 16,16,113,2013-05-25,WEEK 16,10,,Bilirubin (umol/L),BILI,3,CHEM,6.84,5.13,3,21,2.28,0.325714285714286,1.71,0.244285714285714,,,NA,R2A1HI > 1.5,N,0
CDISCPILOT01,1203,01-701-1203,Placebo,0,Placebo,0,2013-02-02,2013-08-03,81,>80,3,BLACK OR AFRICAN AMERICAN,2,F,Y,,Y,Week 16,16,NA,NA,,NA,DERIVED,Bilirubin 1.5 x ULN,BILIHY,4,HYLAW,0,0,NA,NA,NA,NA,NA,NA,,Normal to Normal,1,,,NA
CDISCPILOT01,1203,01-701-1203,Placebo,0,Placebo,0,2013-02-02,2013-08-03,81,>80,3,BLACK OR AFRICAN AMERICAN,2,F,Y,,Y,Week 16,16,NA,NA,,NA,DERIVED,Transaminase 1.5 x ULN,TRANSHY,5,HYLAW,0,0,NA,NA,NA,NA,NA,NA,,Normal to Normal,1,,,NA
CDISCPILOT01,1203,01-701-1203,Placebo,0,Placebo,0,2013-02-02,2013-08-03,81,>80,3,BLACK OR AFRICAN AMERICAN,2,F,Y,,Y,Week 16,16,NA,NA,,NA,DERIVED,Total Bili 1.5 x ULN and Transaminase 1.5 x ULN,HYLAW,6,HYLAW,0,0,NA,NA,NA,NA,NA,NA,,Normal to Normal,1,,,NA
CDISCPILOT01,1203,01-701-1203,Placebo,0,Placebo,0,2013-02-02,2013-08-03,81,>80,3,BLACK OR AFRICAN AMERICAN,2,F,Y,,Y,Week 20,20,141,2013-06-22,WEEK 20,11,,Alanine Aminotransferase (U/L),ALT,1,CHEM,13,13,6,32,2.16666666666667,0.40625,2.16666666666667,0.40625,,,NA,R2A1HI > 1.5,N,0
CDISCPILOT01,1203,01-701-1203,Placebo,0,Placebo,0,2013-02-02,2013-08-03,81,>80,3,BLACK OR AFRICAN AMERICAN,2,F,Y,,Y,Week 20,20,141,2013-06-22,WEEK 20,11,,Aspartate Aminotransferase (U/L),AST,2,CHEM,22,20,9,34,2.44444444444444,0.647058823529412,2.22222222222222,0.588235294117647,,,NA,R2A1HI > 1.5,N,0
CDISCPILOT01,1203,01-701-1203,Placebo,0,Placebo,0,2013-02-02,2013-08-03,81,>80,3,BLACK OR AFRICAN AMERICAN,2,F,Y,,Y,Week 20,20,141,2013-06-22,WEEK 20,11,,Bilirubin (umol/L),BILI,3,CHEM,5.13,5.13,3,21,1.71,0.244285714285714,1.71,0.244285714285714,,,NA,R2A1HI > 1.5,N,0
CDISCPILOT01,1203,01-701-1203,Placebo,0,Placebo,0,2013-02-02,2013-08-03,81,>80,3,BLACK OR AFRICAN AMERICAN,2,F,Y,,Y,Week 20,20,NA,NA,,NA,DERIVED,Bilirubin 1.5 x ULN,BILIHY,4,HYLAW,0,0,NA,NA,NA,NA,NA,NA,,Normal to Normal,1,,,NA
CDISCPILOT01,1203,01-701-1203,Placebo,0,Placebo,0,2013-02-02,2013-08-03,81,>80,3,BLACK OR AFRICAN AMERICAN,2,F,Y,,Y,Week 20,20,NA,NA,,NA,DERIVED,Transaminase 1.5 x ULN,TRANSHY,5,HYLAW,0,0,NA,NA,NA,NA,NA,NA,,Normal to Normal,1,,,NA
CDISCPILOT01,1203,01-701-1203,Placebo,0,Placebo,0,2013-02-02,2013-08-03,81,>80,3,BLACK OR AFRICAN AMERICAN,2,F,Y,,Y,Week 20,20,NA,NA,,NA,DERIVED,Total Bili 1.5 x ULN and Transaminase 1.5 x ULN,HYLAW,6,HYLAW,0,0,NA,NA,NA,NA,NA,NA,,Normal to Normal,1,,,NA
CDISCPILOT01,1203,01-701-1203,Placebo,0,Placebo,0,2013-02-02,2013-08-03,81,>80,3,BLACK OR AFRICAN AMERICAN,2,F,Y,,Y,Week 24,24,171,2013-07-22,WEEK 24,12,,Alanine Aminotransferase (U/L),ALT,1,CHEM,10,13,6,32,1.66666666666667,0.3125,2.16666666666667,0.40625,,,NA,R2A1HI > 1.5,N,0
CDISCPILOT01,1203,01-701-1203,Placebo,0,Placebo,0,2013-02-02,2013-08-03,81,>80,3,BLACK OR AFRICAN AMERICAN,2,F,Y,,Y,Week 24,24,171,2013-07-22,WEEK 24,12,,Aspartate Aminotransferase (U/L),AST,2,CHEM,15,20,9,34,1.66666666666667,0.441176470588235,2.22222222222222,0.588235294117647,,,NA,R2A1HI > 1.5,N,0
CDISCPILOT01,1203,01-701-1203,Placebo,0,Placebo,0,2013-02-02,2013-08-03,81,>80,3,BLACK OR AFRICAN AMERICAN,2,F,Y,,Y,Week 24,24,171,2013-07-22,WEEK 24,12,,Bilirubin (umol/L),BILI,3,CHEM,5.13,5.13,3,21,1.71,0.244285714285714,1.71,0.244285714285714,,,NA,R2A1HI > 1.5,N,0
CDISCPILOT01,1203,01-701-1203,Placebo,0,Placebo,0,2013-02-02,2013-08-03,81,>80,3,BLACK OR AFRICAN AMERICAN,2,F,Y,,Y,Week 24,24,NA,NA,,NA,DERIVED,Bilirubin 1.5 x ULN,BILIHY,4,HYLAW,0,0,NA,NA,NA,NA,NA,NA,,Normal to Normal,1,,,NA
CDISCPILOT01,1203,01-701-1203,Placebo,0,Placebo,0,2013-02-02,2013-08-03,81,>80,3,BLACK OR AFRICAN AMERICAN,2,F,Y,,Y,Week 24,24,NA,NA,,NA,DERIVED,Transaminase 1.5 x ULN,TRANSHY,5,HYLAW,0,0,NA,NA,NA,NA,NA,NA,,Normal to Normal,1,,,NA
CDISCPILOT01,1203,01-701-1203,Placebo,0,Placebo,0,2013-02-02,2013-08-03,81,>80,3,BLACK OR AFRICAN AMERICAN,2,F,Y,,Y,Week 24,24,NA,NA,,NA,DERIVED,Total Bili 1.5 x ULN and Transaminase 1.5 x ULN,HYLAW,6,HYLAW,0,0,NA,NA,NA,NA,NA,NA,,Normal to Normal,1,,,NA
CDISCPILOT01,1211,01-701-1211,Xanomeline Low Dose,54,Xanomeline Low Dose,54,2012-11-15,2013-01-12,76,65-80,2,WHITE,1,F,N,,Y,Baseline,0,-16,2012-10-30,SCREENING 1,1,,Alanine Aminotransferase (U/L),ALT,1,CHEM,19,19,6,32,3.16666666666667,0.59375,3.16666666666667,0.59375,Y,,NA,R2A1HI > 1.5,N,0
CDISCPILOT01,1211,01-701-1211,Xanomeline Low Dose,54,Xanomeline Low Dose,54,2012-11-15,2013-01-12,76,65-80,2,WHITE,1,F,N,,Y,Baseline,0,-16,2012-10-30,SCREENING 1,1,,Aspartate Aminotransferase (U/L),AST,2,CHEM,20,20,9,34,2.22222222222222,0.588235294117647,2.22222222222222,0.588235294117647,Y,,NA,R2A1HI > 1.5,N,0
CDISCPILOT01,1211,01-701-1211,Xanomeline Low Dose,54,Xanomeline Low Dose,54,2012-11-15,2013-01-12,76,65-80,2,WHITE,1,F,N,,Y,Baseline,0,-16,2012-10-30,SCREENING 1,1,,Bilirubin (umol/L),BILI,3,CHEM,18.81,18.81,3,21,6.27,0.895714285714286,6.27,0.895714285714286,Y,,NA,R2A1HI > 1.5,N,0
CDISCPILOT01,1211,01-701-1211,Xanomeline Low Dose,54,Xanomeline Low Dose,54,2012-11-15,2013-01-12,76,65-80,2,WHITE,1,F,N,,Y,Baseline,0,NA,NA,,NA,DERIVED,Bilirubin 1.5 x ULN,BILIHY,4,HYLAW,0,0,NA,NA,NA,NA,NA,NA,Y,Normal to Normal,1,,,NA
CDISCPILOT01,1211,01-701-1211,Xanomeline Low Dose,54,Xanomeline Low Dose,54,2012-11-15,2013-01-12,76,65-80,2,WHITE,1,F,N,,Y,Baseline,0,NA,NA,,NA,DERIVED,Transaminase 1.5 x ULN,TRANSHY,5,HYLAW,0,0,NA,NA,NA,NA,NA,NA,Y,Normal to Normal,1,,,NA
CDISCPILOT01,1211,01-701-1211,Xanomeline Low Dose,54,Xanomeline Low Dose,54,2012-11-15,2013-01-12,76,65-80,2,WHITE,1,F,N,,Y,Baseline,0,NA,NA,,NA,DERIVED,Total Bili 1.5 x ULN and Transaminase 1.5 x ULN,HYLAW,6,HYLAW,0,0,NA,NA,NA,NA,NA,NA,Y,Normal to Normal,1,,,NA
CDISCPILOT01,1211,01-701-1211,Xanomeline Low Dose,54,Xanomeline Low Dose,54,2012-11-15,2013-01-12,76,65-80,2,WHITE,1,F,N,,Y,Week 2,2,14,2012-11-28,WEEK 2,4,,Alanine Aminotransferase (U/L),ALT,1,CHEM,19,19,6,32,3.16666666666667,0.59375,3.16666666666667,0.59375,,,NA,R2A1HI > 1.5,N,0
CDISCPILOT01,1211,01-701-1211,Xanomeline Low Dose,54,Xanomeline Low Dose,54,2012-11-15,2013-01-12,76,65-80,2,WHITE,1,F,N,,Y,Week 2,2,14,2012-11-28,WEEK 2,4,,Aspartate Aminotransferase (U/L),AST,2,CHEM,10,20,9,34,1.11111111111111,0.294117647058824,2.22222222222222,0.588235294117647,,,NA,R2A1HI > 1.5,N,0
CDISCPILOT01,1211,01-701-1211,Xanomeline Low Dose,54,Xanomeline Low Dose,54,2012-11-15,2013-01-12,76,65-80,2,WHITE,1,F,N,,Y,Week 2,2,14,2012-11-28,WEEK 2,4,,Bilirubin (umol/L),BILI,3,CHEM,25.65,18.81,3,21,8.55,1.22142857142857,6.27,0.895714285714286,,,NA,R2A1HI > 1.5,N,0
CDISCPILOT01,1211,01-701-1211,Xanomeline Low Dose,54,Xanomeline Low Dose,54,2012-11-15,2013-01-12,76,65-80,2,WHITE,1,F,N,,Y,Week 2,2,NA,NA,,NA,DERIVED,Bilirubin 1.5 x ULN,BILIHY,4,HYLAW,0,0,NA,NA,NA,NA,NA,NA,,Normal to Normal,1,,,NA
