studyid,domain,usubjid,qsseq,qstestcd,qstest,qscat,qsscat,qsorres,qsorresu,qsstresc,qsstresn,qsstresu,qsstat,qsreasnd,qsblfl,qsdrvfl,visitnum,visit,visitdy,epoch,qsdtc,qsdy
CDISCPILOT01,QS,01-701-1015,6001,CIBIC,"EXTENT OF CHANGE, IF ANY, SINCE BASELINE",ADCS-CGIC,,NO CHANGE,,4,4,,,,,,8,WEEK 8,56,TREATMENT,2014-03-05,63
CDISCPILOT01,QS,01-701-1015,6002,CIBIC,"EXTENT OF CHANGE, IF ANY, SINCE BASELINE",ADCS-CGIC,,NO CHANGE,,4,4,,,,,,10,WEEK 16,112,TREATMENT,2014-05-07,126
CDISCPILOT01,QS,01-701-1015,6003,CIBIC,"EXTENT OF CHANGE, IF ANY, SINCE BASELINE",ADCS-CGIC,,NO CHANGE,,4,4,,,,,,12,WEEK 24,168,TREATMENT,2014-06-18,168
CDISCPILOT01,QS,01-701-1023,6001,CIBIC,"EXTENT OF CHANGE, IF ANY, SINCE BASELINE",ADCS-CGIC,,MINIMAL IMPROVEMENT,,3,3,,,,,,5,WEEK 4,28,TREATMENT,2012-09-02,29
CDISCPILOT01,QS,01-701-1023,6002,CIBIC,"EXTENT OF CHANGE, IF ANY, SINCE BASELINE",ADCS-CGIC,,MINIMAL WORSENING,,5,5,,,,,,201,RETRIEVAL,168,TREATMENT,2013-02-18,198
CDISCPILOT01,QS,01-701-1028,6001,CIBIC,"EXTENT OF CHANGE, IF ANY, SINCE BASELINE",ADCS-CGIC,,NO CHANGE,,4,4,,,,,,8,WEEK 8,56,TREATMENT,2013-09-10,54
CDISCPILOT01,QS,01-701-1028,6002,CIBIC,"EXTENT OF CHANGE, IF ANY, SINCE BASELINE",ADCS-CGIC,,NO CHANGE,,4,4,,,,,,10,WEEK 16,112,TREATMENT,2013-11-06,111
CDISCPILOT01,QS,01-701-1028,6003,CIBIC,"EXTENT OF CHANGE, IF ANY, SINCE BASELINE",ADCS-CGIC,,NO CHANGE,,4,4,,,,,,12,WEEK 24,168,TREATMENT,2014-01-06,172
CDISCPILOT01,QS,01-701-1033,6001,CIBIC,"EXTENT OF CHANGE, IF ANY, SINCE BASELINE",ADCS-CGIC,,NO CHANGE,,4,4,,,,,,5,WEEK 4,28,TREATMENT,2014-04-14,28
CDISCPILOT01,QS,01-701-1033,6002,CIBIC,"EXTENT OF CHANGE, IF ANY, SINCE BASELINE",ADCS-CGIC,,NO CHANGE,,4,4,,,,,,201,RETRIEVAL,168,TREATMENT,2014-09-15,182
CDISCPILOT01,QS,01-701-1034,6001,CIBIC,"EXTENT OF CHANGE, IF ANY, SINCE BASELINE",ADCS-CGIC,,NO CHANGE,,4,4,,,,,,8,WEEK 8,56,TREATMENT,2014-08-26,57
CDISCPILOT01,QS,01-701-1034,6002,CIBIC,"EXTENT OF CHANGE, IF ANY, SINCE BASELINE",ADCS-CGIC,,MINIMAL IMPROVEMENT,,3,3,,,,,,10,WEEK 16,112,TREATMENT,2014-10-21,113
CDISCPILOT01,QS,01-701-1034,6003,CIBIC,"EXTENT OF CHANGE, IF ANY, SINCE BASELINE",ADCS-CGIC,,NO CHANGE,,4,4,,,,,,12,WEEK 24,168,TREATMENT,2014-12-17,170
CDISCPILOT01,QS,01-701-1047,6001,CIBIC,"EXTENT OF CHANGE, IF ANY, SINCE BASELINE",ADCS-CGIC,,NO CHANGE,,4,4,,,,,,6,AMBUL ECG REMOVAL,30,TREATMENT,2013-03-29,46
CDISCPILOT01,QS,01-701-1047,6002,CIBIC,"EXTENT OF CHANGE, IF ANY, SINCE BASELINE",ADCS-CGIC,,MINIMAL WORSENING,,5,5,,,,,,201,RETRIEVAL,168,TREATMENT,2013-07-28,167
CDISCPILOT01,QS,01-701-1097,6001,CIBIC,"EXTENT OF CHANGE, IF ANY, SINCE BASELINE",ADCS-CGIC,,MINIMAL IMPROVEMENT,,3,3,,,,,,8,WEEK 8,56,TREATMENT,2014-02-26,57
CDISCPILOT01,QS,01-701-1097,6002,CIBIC,"EXTENT OF CHANGE, IF ANY, SINCE BASELINE",ADCS-CGIC,,NO CHANGE,,4,4,,,,,,10,WEEK 16,112,TREATMENT,2014-04-23,113
CDISCPILOT01,QS,01-701-1097,6003,CIBIC,"EXTENT OF CHANGE, IF ANY, SINCE BASELINE",ADCS-CGIC,,MINIMAL IMPROVEMENT,,3,3,,,,,,12,WEEK 24,168,TREATMENT,2014-06-18,169
CDISCPILOT01,QS,01-701-1111,6001,CIBIC,"EXTENT OF CHANGE, IF ANY, SINCE BASELINE",ADCS-CGIC,,NO CHANGE,,4,4,,,,,,4,WEEK 2,14,TREATMENT,2012-09-17,11
CDISCPILOT01,QS,01-701-1111,6002,CIBIC,"EXTENT OF CHANGE, IF ANY, SINCE BASELINE",ADCS-CGIC,,MINIMAL WORSENING,,5,5,,,,,,201,RETRIEVAL,168,TREATMENT,2013-02-22,169
CDISCPILOT01,QS,01-701-1115,6001,CIBIC,"EXTENT OF CHANGE, IF ANY, SINCE BASELINE",ADCS-CGIC,,NO CHANGE,,4,4,,,,,,8,WEEK 8,56,TREATMENT,2013-01-23,55
CDISCPILOT01,QS,01-701-1115,6002,CIBIC,"EXTENT OF CHANGE, IF ANY, SINCE BASELINE",ADCS-CGIC,,MINIMAL WORSENING,,5,5,,,,,,201,RETRIEVAL,168,TREATMENT,2013-05-20,172
CDISCPILOT01,QS,01-701-1118,6001,CIBIC,"EXTENT OF CHANGE, IF ANY, SINCE BASELINE",ADCS-CGIC,,NO CHANGE,,4,4,,,,,,8,WEEK 8,56,TREATMENT,2014-05-08,58
CDISCPILOT01,QS,01-701-1118,6002,CIBIC,"EXTENT OF CHANGE, IF ANY, SINCE BASELINE",ADCS-CGIC,,NO CHANGE,,4,4,,,,,,10,WEEK 16,112,TREATMENT,2014-07-02,113
CDISCPILOT01,QS,01-701-1118,6003,CIBIC,"EXTENT OF CHANGE, IF ANY, SINCE BASELINE",ADCS-CGIC,,NO CHANGE,,4,4,,,,,,12,WEEK 24,168,TREATMENT,2014-08-27,169
CDISCPILOT01,QS,01-701-1130,6001,CIBIC,"EXTENT OF CHANGE, IF ANY, SINCE BASELINE",ADCS-CGIC,,MINIMAL IMPROVEMENT,,3,3,,,,,,8,WEEK 8,56,TREATMENT,2014-04-12,57
CDISCPILOT01,QS,01-701-1130,6002,CIBIC,"EXTENT OF CHANGE, IF ANY, SINCE BASELINE",ADCS-CGIC,,MINIMAL IMPROVEMENT,,3,3,,,,,,10,WEEK 16,112,TREATMENT,2014-06-07,113
CDISCPILOT01,QS,01-701-1130,6003,CIBIC,"EXTENT OF CHANGE, IF ANY, SINCE BASELINE",ADCS-CGIC,,MINIMAL IMPROVEMENT,,3,3,,,,,,12,WEEK 24,168,TREATMENT,2014-08-02,169
CDISCPILOT01,QS,01-701-1133,6001,CIBIC,"EXTENT OF CHANGE, IF ANY, SINCE BASELINE",ADCS-CGIC,,NO CHANGE,,4,4,,,,,,8,WEEK 8,56,TREATMENT,2012-12-24,58
CDISCPILOT01,QS,01-701-1133,6002,CIBIC,"EXTENT OF CHANGE, IF ANY, SINCE BASELINE",ADCS-CGIC,,MINIMAL WORSENING,,5,5,,,,,,10,WEEK 16,112,TREATMENT,2013-02-18,114
CDISCPILOT01,QS,01-701-1133,6003,CIBIC,"EXTENT OF CHANGE, IF ANY, SINCE BASELINE",ADCS-CGIC,,MINIMAL WORSENING,,5,5,,,,,,12,WEEK 24,168,TREATMENT,2013-04-18,173
CDISCPILOT01,QS,01-701-1146,6001,CIBIC,"EXTENT OF CHANGE, IF ANY, SINCE BASELINE",ADCS-CGIC,,NO CHANGE,,4,4,,,,,,7,WEEK 6,42,TREATMENT,2013-06-30,42
CDISCPILOT01,QS,01-701-1148,6001,CIBIC,"EXTENT OF CHANGE, IF ANY, SINCE BASELINE",ADCS-CGIC,,MINIMAL WORSENING,,5,5,,,,,,8,WEEK 8,56,TREATMENT,2013-10-18,57
CDISCPILOT01,QS,01-701-1148,6002,CIBIC,"EXTENT OF CHANGE, IF ANY, SINCE BASELINE",ADCS-CGIC,,NO CHANGE,,4,4,,,,,,10,WEEK 16,112,TREATMENT,2013-12-13,113
CDISCPILOT01,QS,01-701-1148,6003,CIBIC,"EXTENT OF CHANGE, IF ANY, SINCE BASELINE",ADCS-CGIC,,MINIMAL WORSENING,,5,5,,,,,,12,WEEK 24,168,TREATMENT,2014-02-08,170
CDISCPILOT01,QS,01-701-1153,6001,CIBIC,"EXTENT OF CHANGE, IF ANY, SINCE BASELINE",ADCS-CGIC,,NO CHANGE,,4,4,,,,,,8,WEEK 8,56,TREATMENT,2013-11-18,57
CDISCPILOT01,QS,01-701-1153,6002,CIBIC,"EXTENT OF CHANGE, IF ANY, SINCE BASELINE",ADCS-CGIC,,NO CHANGE,,4,4,,,,,,10,WEEK 16,112,TREATMENT,2014-01-08,108
CDISCPILOT01,QS,01-701-1153,6003,CIBIC,"EXTENT OF CHANGE, IF ANY, SINCE BASELINE",ADCS-CGIC,,NO CHANGE,,4,4,,,,,,12,WEEK 24,168,TREATMENT,2014-03-11,170
CDISCPILOT01,QS,01-701-1180,6001,CIBIC,"EXTENT OF CHANGE, IF ANY, SINCE BASELINE",ADCS-CGIC,,MINIMAL WORSENING,,5,5,,,,,,7,WEEK 6,42,TREATMENT,2013-03-23,40
CDISCPILOT01,QS,01-701-1181,6001,CIBIC,"EXTENT OF CHANGE, IF ANY, SINCE BASELINE",ADCS-CGIC,,NO CHANGE,,4,4,,,,,,4,WEEK 2,14,TREATMENT,2013-12-12,8
CDISCPILOT01,QS,01-701-1181,6002,CIBIC,"EXTENT OF CHANGE, IF ANY, SINCE BASELINE",ADCS-CGIC,,MINIMAL WORSENING,,5,5,,,,,,201,RETRIEVAL,168,TREATMENT,2014-05-23,170
CDISCPILOT01,QS,01-701-1188,6001,CIBIC,"EXTENT OF CHANGE, IF ANY, SINCE BASELINE",ADCS-CGIC,,NO CHANGE,,4,4,,,,,,7,WEEK 6,42,TREATMENT,2013-03-25,39
CDISCPILOT01,QS,01-701-1188,6002,CIBIC,"EXTENT OF CHANGE, IF ANY, SINCE BASELINE",ADCS-CGIC,,NO CHANGE,,4,4,,,,,,201,RETRIEVAL,168,TREATMENT,2013-08-04,171
CDISCPILOT01,QS,01-701-1192,6001,CIBIC,"EXTENT OF CHANGE, IF ANY, SINCE BASELINE",ADCS-CGIC,,MINIMAL WORSENING,,5,5,,,,,,8,WEEK 8,56,TREATMENT,2012-09-23,64
CDISCPILOT01,QS,01-701-1192,6002,CIBIC,"EXTENT OF CHANGE, IF ANY, SINCE BASELINE",ADCS-CGIC,,NO CHANGE,,4,4,,,,,,10,WEEK 16,112,TREATMENT,2012-11-15,117
CDISCPILOT01,QS,01-701-1192,6003,CIBIC,"EXTENT OF CHANGE, IF ANY, SINCE BASELINE",ADCS-CGIC,,NO CHANGE,,4,4,,,,,,12,WEEK 24,168,TREATMENT,2013-01-11,174
CDISCPILOT01,QS,01-701-1203,6001,CIBIC,"EXTENT OF CHANGE, IF ANY, SINCE BASELINE",ADCS-CGIC,,NO CHANGE,,4,4,,,,,,8,WEEK 8,56,TREATMENT,2013-03-30,57
CDISCPILOT01,QS,01-701-1203,6002,CIBIC,"EXTENT OF CHANGE, IF ANY, SINCE BASELINE",ADCS-CGIC,,NO CHANGE,,4,4,,,,,,10,WEEK 16,112,TREATMENT,2013-05-25,113
CDISCPILOT01,QS,01-701-1203,6003,CIBIC,"EXTENT OF CHANGE, IF ANY, SINCE BASELINE",ADCS-CGIC,,NO CHANGE,,4,4,,,,,,12,WEEK 24,168,TREATMENT,2013-07-22,171
CDISCPILOT01,QS,01-701-1211,6001,CIBIC,"EXTENT OF CHANGE, IF ANY, SINCE BASELINE",ADCS-CGIC,,MINIMAL WORSENING,,5,5,,,,,,8,WEEK 8,56,TREATMENT,2013-01-08,55
CDISCPILOT01,QS,01-701-1234,6001,CIBIC,"EXTENT OF CHANGE, IF ANY, SINCE BASELINE",ADCS-CGIC,,MINIMAL IMPROVEMENT,,3,3,,,,,,8,WEEK 8,56,TREATMENT,2013-05-26,58
CDISCPILOT01,QS,01-701-1234,6002,CIBIC,"EXTENT OF CHANGE, IF ANY, SINCE BASELINE",ADCS-CGIC,,NO CHANGE,,4,4,,,,,,10,WEEK 16,112,TREATMENT,2013-07-27,120
CDISCPILOT01,QS,01-701-1234,6003,CIBIC,"EXTENT OF CHANGE, IF ANY, SINCE BASELINE",ADCS-CGIC,,NO CHANGE,,4,4,,,,,,12,WEEK 24,168,TREATMENT,2013-09-10,165
CDISCPILOT01,QS,01-701-1239,6001,CIBIC,"EXTENT OF CHANGE, IF ANY, SINCE BASELINE",ADCS-CGIC,,MINIMAL IMPROVEMENT,,3,3,,,,,,8,WEEK 8,56,TREATMENT,2014-03-06,55
CDISCPILOT01,QS,01-701-1239,6002,CIBIC,"EXTENT OF CHANGE, IF ANY, SINCE BASELINE",ADCS-CGIC,,MODERATE IMPROVEMENT,,2,2,,,,,,10,WEEK 16,112,TREATMENT,2014-05-02,112
CDISCPILOT01,QS,01-701-1239,6003,CIBIC,"EXTENT OF CHANGE, IF ANY, SINCE BASELINE",ADCS-CGIC,,MINIMAL IMPROVEMENT,,3,3,,,,,,12,WEEK 24,168,TREATMENT,2014-06-27,168
CDISCPILOT01,QS,01-701-1275,6001,CIBIC,"EXTENT OF CHANGE, IF ANY, SINCE BASELINE",ADCS-CGIC,,MINIMAL IMPROVEMENT,,3,3,,,,,,8,WEEK 8,56,TREATMENT,2014-04-05,58
CDISCPILOT01,QS,01-701-1275,6002,CIBIC,"EXTENT OF CHANGE, IF ANY, SINCE BASELINE",ADCS-CGIC,,NO CHANGE,,4,4,,,,,,10,WEEK 16,112,TREATMENT,2014-06-14,128
CDISCPILOT01,QS,01-701-1287,6001,CIBIC,"EXTENT OF CHANGE, IF ANY, SINCE BASELINE",ADCS-CGIC,,NO CHANGE,,4,4,,,,,,8,WEEK 8,56,TREATMENT,2014-03-21,56
CDISCPILOT01,QS,01-701-1287,6002,CIBIC,"EXTENT OF CHANGE, IF ANY, SINCE BASELINE",ADCS-CGIC,,NO CHANGE,,4,4,,,,,,10,WEEK 16,112,TREATMENT,2014-05-15,111
CDISCPILOT01,QS,01-701-1287,6003,CIBIC,"EXTENT OF CHANGE, IF ANY, SINCE BASELINE",ADCS-CGIC,,NO CHANGE,,4,4,,,,,,12,WEEK 24,168,TREATMENT,2014-07-12,169
CDISCPILOT01,QS,01-701-1294,6001,CIBIC,"EXTENT OF CHANGE, IF ANY, SINCE BASELINE",ADCS-CGIC,,MINIMAL WORSENING,,5,5,,,,,,8,WEEK 8,56,TREATMENT,2013-05-22,60
CDISCPILOT01,QS,01-701-1294,6002,CIBIC,"EXTENT OF CHANGE, IF ANY, SINCE BASELINE",ADCS-CGIC,,NO CHANGE,,4,4,,,,,,9,WEEK 12,84,TREATMENT,2013-06-14,83
CDISCPILOT01,QS,01-701-1294,6003,CIBIC,"EXTENT OF CHANGE, IF ANY, SINCE BASELINE",ADCS-CGIC,,MINIMAL WORSENING,,5,5,,,,,,201,RETRIEVAL,168,TREATMENT,2013-10-08,199
CDISCPILOT01,QS,01-701-1302,6001,CIBIC,"EXTENT OF CHANGE, IF ANY, SINCE BASELINE",ADCS-CGIC,,NO CHANGE,,4,4,,,,,,8,WEEK 8,56,TREATMENT,2013-10-22,55
CDISCPILOT01,QS,01-701-1302,6002,CIBIC,"EXTENT OF CHANGE, IF ANY, SINCE BASELINE",ADCS-CGIC,,MINIMAL WORSENING,,5,5,,,,,,9,WEEK 12,84,TREATMENT,2013-11-05,69
CDISCPILOT01,QS,01-701-1302,6003,CIBIC,"EXTENT OF CHANGE, IF ANY, SINCE BASELINE",ADCS-CGIC,,NO CHANGE,,4,4,,,,,,201,RETRIEVAL,168,TREATMENT,2014-02-13,169
CDISCPILOT01,QS,01-701-1317,6001,CIBIC,"EXTENT OF CHANGE, IF ANY, SINCE BASELINE",ADCS-CGIC,,NO CHANGE,,4,4,,,,,,8,WEEK 8,56,TREATMENT,2014-07-22,62
CDISCPILOT01,QS,01-701-1317,6002,CIBIC,"EXTENT OF CHANGE, IF ANY, SINCE BASELINE",ADCS-CGIC,,NO CHANGE,,4,4,,,,,,10,WEEK 16,112,TREATMENT,2014-09-11,113
CDISCPILOT01,QS,01-701-1317,6003,CIBIC,"EXTENT OF CHANGE, IF ANY, SINCE BASELINE",ADCS-CGIC,,NO CHANGE,,4,4,,,,,,12,WEEK 24,168,TREATMENT,2014-11-06,169
CDISCPILOT01,QS,01-701-1324,6001,CIBIC,"EXTENT OF CHANGE, IF ANY, SINCE BASELINE",ADCS-CGIC,,NO CHANGE,,4,4,,,,,,8,WEEK 8,56,TREATMENT,2012-11-25,55
CDISCPILOT01,QS,01-701-1324,6002,CIBIC,"EXTENT OF CHANGE, IF ANY, SINCE BASELINE",ADCS-CGIC,,NO CHANGE,,4,4,,,,,,10,WEEK 16,112,TREATMENT,2013-01-22,113
CDISCPILOT01,QS,01-701-1324,6003,CIBIC,"EXTENT OF CHANGE, IF ANY, SINCE BASELINE",ADCS-CGIC,,MINIMAL WORSENING,,5,5,,,,,,12,WEEK 24,168,TREATMENT,2013-03-19,169
CDISCPILOT01,QS,01-701-1341,6001,CIBIC,"EXTENT OF CHANGE, IF ANY, SINCE BASELINE",ADCS-CGIC,,NO CHANGE,,4,4,,,,,,5,WEEK 4,28,TREATMENT,2013-02-07,34
CDISCPILOT01,QS,01-701-1345,6001,CIBIC,"EXTENT OF CHANGE, IF ANY, SINCE BASELINE",ADCS-CGIC,,NO CHANGE,,4,4,,,,,,8,WEEK 8,56,TREATMENT,2013-12-03,57
CDISCPILOT01,QS,01-701-1345,6002,CIBIC,"EXTENT OF CHANGE, IF ANY, SINCE BASELINE",ADCS-CGIC,,MINIMAL WORSENING,,5,5,,,,,,10,WEEK 16,112,TREATMENT,2014-01-27,112
CDISCPILOT01,QS,01-701-1345,6003,CIBIC,"EXTENT OF CHANGE, IF ANY, SINCE BASELINE",ADCS-CGIC,,MINIMAL WORSENING,,5,5,,,,,,12,WEEK 24,168,TREATMENT,2014-03-18,162
CDISCPILOT01,QS,01-701-1360,6001,CIBIC,"EXTENT OF CHANGE, IF ANY, SINCE BASELINE",ADCS-CGIC,,NO CHANGE,,4,4,,,,,,4,WEEK 2,14,TREATMENT,2013-08-14,15
CDISCPILOT01,QS,01-701-1360,6002,CIBIC,"EXTENT OF CHANGE, IF ANY, SINCE BASELINE",ADCS-CGIC,,NO CHANGE,,4,4,,,,,,201,RETRIEVAL,168,TREATMENT,2014-02-11,196
CDISCPILOT01,QS,01-701-1363,6001,CIBIC,"EXTENT OF CHANGE, IF ANY, SINCE BASELINE",ADCS-CGIC,,MINIMAL WORSENING,,5,5,,,,,,8,WEEK 8,56,TREATMENT,2013-07-24,56
CDISCPILOT01,QS,01-701-1363,6002,CIBIC,"EXTENT OF CHANGE, IF ANY, SINCE BASELINE",ADCS-CGIC,,NO CHANGE,,4,4,,,,,,10,WEEK 16,112,TREATMENT,2013-09-18,112
CDISCPILOT01,QS,01-701-1363,6003,CIBIC,"EXTENT OF CHANGE, IF ANY, SINCE BASELINE",ADCS-CGIC,,MINIMAL WORSENING,,5,5,,,,,,12,WEEK 24,168,TREATMENT,2013-11-13,168
CDISCPILOT01,QS,01-701-1383,6001,CIBIC,"EXTENT OF CHANGE, IF ANY, SINCE BASELINE",ADCS-CGIC,,NO CHANGE,,4,4,,,,,,8,WEEK 8,56,TREATMENT,2013-04-02,58
CDISCPILOT01,QS,01-701-1383,6002,CIBIC,"EXTENT OF CHANGE, IF ANY, SINCE BASELINE",ADCS-CGIC,,NO CHANGE,,4,4,,,,,,10,WEEK 16,112,TREATMENT,2013-05-30,116
CDISCPILOT01,QS,01-701-1383,6003,CIBIC,"EXTENT OF CHANGE, IF ANY, SINCE BASELINE",ADCS-CGIC,,MINIMAL WORSENING,,5,5,,,,,,12,WEEK 24,168,TREATMENT,2013-07-30,177
CDISCPILOT01,QS,01-701-1387,6001,CIBIC,"EXTENT OF CHANGE, IF ANY, SINCE BASELINE",ADCS-CGIC,,MINIMAL IMPROVEMENT,,3,3,,,,,,4,WEEK 2,14,TREATMENT,2014-03-25,14
CDISCPILOT01,QS,01-701-1387,6002,CIBIC,"EXTENT OF CHANGE, IF ANY, SINCE BASELINE",ADCS-CGIC,,MODERATE WORSENING,,6,6,,,,,,201,RETRIEVAL,168,TREATMENT,2014-08-27,169
CDISCPILOT01,QS,01-701-1392,6001,CIBIC,"EXTENT OF CHANGE, IF ANY, SINCE BASELINE",ADCS-CGIC,,NO CHANGE,,4,4,,,,,,8,WEEK 8,56,TREATMENT,2012-12-20,54
CDISCPILOT01,QS,01-701-1392,6002,CIBIC,"EXTENT OF CHANGE, IF ANY, SINCE BASELINE",ADCS-CGIC,,MINIMAL WORSENING,,5,5,,,,,,10,WEEK 16,112,TREATMENT,2013-02-17,113
CDISCPILOT01,QS,01-701-1392,6003,CIBIC,"EXTENT OF CHANGE, IF ANY, SINCE BASELINE",ADCS-CGIC,,NO CHANGE,,4,4,,,,,,12,WEEK 24,168,TREATMENT,2013-04-15,170
CDISCPILOT01,QS,01-701-1415,6001,CIBIC,"EXTENT OF CHANGE, IF ANY, SINCE BASELINE",ADCS-CGIC,,MINIMAL WORSENING,,5,5,,,,,,8,WEEK 8,56,TREATMENT,2013-11-21,60
CDISCPILOT01,QS,01-701-1415,6002,CIBIC,"EXTENT OF CHANGE, IF ANY, SINCE BASELINE",ADCS-CGIC,,NO CHANGE,,4,4,,,,,,10,WEEK 16,112,TREATMENT,2014-01-14,114
CDISCPILOT01,QS,01-701-1415,6003,CIBIC,"EXTENT OF CHANGE, IF ANY, SINCE BASELINE",ADCS-CGIC,,NO CHANGE,,4,4,,,,,,12,WEEK 24,168,TREATMENT,2014-03-10,169
CDISCPILOT01,QS,01-701-1429,6001,CIBIC,"EXTENT OF CHANGE, IF ANY, SINCE BASELINE",ADCS-CGIC,,MINIMAL IMPROVEMENT,,3,3,,,,,,7,WEEK 6,42,TREATMENT,2013-04-30,43
CDISCPILOT01,QS,01-701-1440,6001,CIBIC,"EXTENT OF CHANGE, IF ANY, SINCE BASELINE",ADCS-CGIC,,MINIMAL IMPROVEMENT,,3,3,,,,,,8,WEEK 8,56,TREATMENT,2013-10-03,57
CDISCPILOT01,QS,01-701-1440,6002,CIBIC,"EXTENT OF CHANGE, IF ANY, SINCE BASELINE",ADCS-CGIC,,MINIMAL WORSENING,,5,5,,,,,,10,WEEK 16,112,TREATMENT,2013-11-27,112
CDISCPILOT01,QS,01-701-1440,6003,CIBIC,"EXTENT OF CHANGE, IF ANY, SINCE BASELINE",ADCS-CGIC,,MINIMAL WORSENING,,5,5,,,,,,12,WEEK 24,168,TREATMENT,2014-01-22,168
CDISCPILOT01,QS,01-701-1442,6001,CIBIC,"EXTENT OF CHANGE, IF ANY, SINCE BASELINE",ADCS-CGIC,,NO CHANGE,,4,4,,,,,,8,WEEK 8,56,TREATMENT,2013-12-26,62
CDISCPILOT01,QS,01-701-1442,6002,CIBIC,"EXTENT OF CHANGE, IF ANY, SINCE BASELINE",ADCS-CGIC,,NO CHANGE,,4,4,,,,,,10,WEEK 16,112,TREATMENT,2014-02-15,113
CDISCPILOT01,QS,01-701-1442,6003,CIBIC,"EXTENT OF CHANGE, IF ANY, SINCE BASELINE",ADCS-CGIC,,NO CHANGE,,4,4,,,,,,12,WEEK 24,168,TREATMENT,2014-04-17,174
CDISCPILOT01,QS,01-701-1444,6001,CIBIC,"EXTENT OF CHANGE, IF ANY, SINCE BASELINE",ADCS-CGIC,,MINIMAL WORSENING,,5,5,,,,,,7,WEEK 6,42,TREATMENT,2013-02-13,40
CDISCPILOT01,QS,01-701-1444,6002,CIBIC,"EXTENT OF CHANGE, IF ANY, SINCE BASELINE",ADCS-CGIC,,MINIMAL WORSENING,,5,5,,,,,,201,RETRIEVAL,168,TREATMENT,2013-06-20,167
CDISCPILOT01,QS,01-702-1082,6001,CIBIC,"EXTENT OF CHANGE, IF ANY, SINCE BASELINE",ADCS-CGIC,,NO CHANGE,,4,4,,,,,,8,WEEK 8,56,TREATMENT,2013-09-28,65
CDISCPILOT01,QS,01-702-1082,6002,CIBIC,"EXTENT OF CHANGE, IF ANY, SINCE BASELINE",ADCS-CGIC,,NO CHANGE,,4,4,,,,,,9,WEEK 12,84,TREATMENT,2013-11-17,115
CDISCPILOT01,QS,01-703-1042,6001,CIBIC,"EXTENT OF CHANGE, IF ANY, SINCE BASELINE",ADCS-CGIC,,NO CHANGE,,4,4,,,,,,10,WEEK 16,112,TREATMENT,2013-06-22,113
CDISCPILOT01,QS,01-703-1042,6002,CIBIC,"EXTENT OF CHANGE, IF ANY, SINCE BASELINE",ADCS-CGIC,,NO CHANGE,,4,4,,,,,,12,WEEK 24,168,TREATMENT,2013-08-09,161
CDISCPILOT01,QS,01-703-1076,6001,CIBIC,"EXTENT OF CHANGE, IF ANY, SINCE BASELINE",ADCS-CGIC,,MINIMAL IMPROVEMENT,,3,3,,,,,,8,WEEK 8,56,TREATMENT,2013-12-17,54
CDISCPILOT01,QS,01-703-1076,6002,CIBIC,"EXTENT OF CHANGE, IF ANY, SINCE BASELINE",ADCS-CGIC,,MINIMAL IMPROVEMENT,,3,3,,,,,,9,WEEK 12,84,TREATMENT,2013-12-24,61
CDISCPILOT01,QS,01-703-1086,6001,CIBIC,"EXTENT OF CHANGE, IF ANY, SINCE BASELINE",ADCS-CGIC,,MINIMAL IMPROVEMENT,,3,3,,,,,,8,WEEK 8,56,TREATMENT,2012-10-27,56
CDISCPILOT01,QS,01-703-1086,6002,CIBIC,"EXTENT OF CHANGE, IF ANY, SINCE BASELINE",ADCS-CGIC,,MINIMAL IMPROVEMENT,,3,3,,,,,,10,WEEK 16,112,TREATMENT,2012-12-24,114
CDISCPILOT01,QS,01-703-1086,6003,CIBIC,"EXTENT OF CHANGE, IF ANY, SINCE BASELINE",ADCS-CGIC,,MINIMAL IMPROVEMENT,,3,3,,,,,,201,RETRIEVAL,168,TREATMENT,2013-03-26,206
CDISCPILOT01,QS,01-703-1100,6001,CIBIC,"EXTENT OF CHANGE, IF ANY, SINCE BASELINE",ADCS-CGIC,,NO CHANGE,,4,4,,,,,,8,WEEK 8,56,TREATMENT,2013-05-08,57
CDISCPILOT01,QS,01-703-1100,6002,CIBIC,"EXTENT OF CHANGE, IF ANY, SINCE BASELINE",ADCS-CGIC,,NO CHANGE,,4,4,,,,,,10,WEEK 16,112,TREATMENT,2013-07-03,113
CDISCPILOT01,QS,01-703-1100,6003,CIBIC,"EXTENT OF CHANGE, IF ANY, SINCE BASELINE",ADCS-CGIC,,MINIMAL WORSENING,,5,5,,,,,,12,WEEK 24,168,TREATMENT,2013-08-28,169
CDISCPILOT01,QS,01-703-1119,6001,CIBIC,"EXTENT OF CHANGE, IF ANY, SINCE BASELINE",ADCS-CGIC,,NO CHANGE,,4,4,,,,,,8,WEEK 8,56,TREATMENT,2013-04-19,59
CDISCPILOT01,QS,01-703-1119,6002,CIBIC,"EXTENT OF CHANGE, IF ANY, SINCE BASELINE",ADCS-CGIC,,MINIMAL WORSENING,,5,5,,,,,,10,WEEK 16,112,TREATMENT,2013-06-13,114
CDISCPILOT01,QS,01-703-1119,6003,CIBIC,"EXTENT OF CHANGE, IF ANY, SINCE BASELINE",ADCS-CGIC,,MINIMAL WORSENING,,5,5,,,,,,201,RETRIEVAL,168,TREATMENT,2013-08-24,186
CDISCPILOT01,QS,01-703-1175,6001,CIBIC,"EXTENT OF CHANGE, IF ANY, SINCE BASELINE",ADCS-CGIC,,NO CHANGE,,4,4,,,,,,4,WEEK 2,14,TREATMENT,2013-12-31,12
CDISCPILOT01,QS,01-703-1182,6001,CIBIC,"EXTENT OF CHANGE, IF ANY, SINCE BASELINE",ADCS-CGIC,,NO CHANGE,,4,4,,,,,,8,WEEK 8,56,TREATMENT,2013-12-12,57
CDISCPILOT01,QS,01-703-1197,6001,CIBIC,"EXTENT OF CHANGE, IF ANY, SINCE BASELINE",ADCS-CGIC,,NO CHANGE,,4,4,,,,,,4,WEEK 2,14,TREATMENT,2013-07-22,37
CDISCPILOT01,QS,01-703-1210,6001,CIBIC,"EXTENT OF CHANGE, IF ANY, SINCE BASELINE",ADCS-CGIC,,MINIMAL WORSENING,,5,5,,,,,,8,WEEK 8,56,TREATMENT,2013-05-10,56
CDISCPILOT01,QS,01-703-1210,6002,CIBIC,"EXTENT OF CHANGE, IF ANY, SINCE BASELINE",ADCS-CGIC,,NO CHANGE,,4,4,,,,,,10,WEEK 16,112,TREATMENT,2013-07-05,112
CDISCPILOT01,QS,01-703-1210,6003,CIBIC,"EXTENT OF CHANGE, IF ANY, SINCE BASELINE",ADCS-CGIC,,MINIMAL WORSENING,,5,5,,,,,,12,WEEK 24,168,TREATMENT,2013-08-24,162
CDISCPILOT01,QS,01-703-1258,6001,CIBIC,"EXTENT OF CHANGE, IF ANY, SINCE BASELINE",ADCS-CGIC,,MINIMAL WORSENING,,5,5,,,,,,8,WEEK 8,56,TREATMENT,2012-09-14,57
CDISCPILOT01,QS,01-703-1258,6002,CIBIC,"EXTENT OF CHANGE, IF ANY, SINCE BASELINE",ADCS-CGIC,,NO CHANGE,,4,4,,,,,,10,WEEK 16,112,TREATMENT,2012-11-05,109
CDISCPILOT01,QS,01-703-1258,6003,CIBIC,"EXTENT OF CHANGE, IF ANY, SINCE BASELINE",ADCS-CGIC,,MINIMAL WORSENING,,5,5,,,,,,12,WEEK 24,168,TREATMENT,2012-12-31,165
CDISCPILOT01,QS,01-703-1295,6001,CIBIC,"EXTENT OF CHANGE, IF ANY, SINCE BASELINE",ADCS-CGIC,,MINIMAL WORSENING,,5,5,,,,,,8,WEEK 8,56,TREATMENT,2014-01-15,56
CDISCPILOT01,QS,01-703-1295,6002,CIBIC,"EXTENT OF CHANGE, IF ANY, SINCE BASELINE",ADCS-CGIC,,NO CHANGE,,4,4,,,,,,10,WEEK 16,112,TREATMENT,2014-03-13,113
CDISCPILOT01,QS,01-703-1299,6001,CIBIC,"EXTENT OF CHANGE, IF ANY, SINCE BASELINE",ADCS-CGIC,,MINIMAL IMPROVEMENT,,3,3,,,,,,8,WEEK 8,56,TREATMENT,2012-11-07,57
CDISCPILOT01,QS,01-703-1299,6002,CIBIC,"EXTENT OF CHANGE, IF ANY, SINCE BASELINE",ADCS-CGIC,,NO CHANGE,,4,4,,,,,,10,WEEK 16,112,TREATMENT,2013-01-02,113
CDISCPILOT01,QS,01-703-1299,6003,CIBIC,"EXTENT OF CHANGE, IF ANY, SINCE BASELINE",ADCS-CGIC,,NO CHANGE,,4,4,,,,,,12,WEEK 24,168,TREATMENT,2013-03-01,171
CDISCPILOT01,QS,01-703-1335,6001,CIBIC,"EXTENT OF CHANGE, IF ANY, SINCE BASELINE",ADCS-CGIC,,MINIMAL WORSENING,,5,5,,,,,,7,WEEK 6,42,TREATMENT,2014-05-24,69
CDISCPILOT01,QS,01-703-1379,6001,CIBIC,"EXTENT OF CHANGE, IF ANY, SINCE BASELINE",ADCS-CGIC,,NO CHANGE,,4,4,,,,,,8,WEEK 8,56,TREATMENT,2013-11-17,57
CDISCPILOT01,QS,01-703-1379,6002,CIBIC,"EXTENT OF CHANGE, IF ANY, SINCE BASELINE",ADCS-CGIC,,NO CHANGE,,4,4,,,,,,10,WEEK 16,112,TREATMENT,2014-01-11,112
CDISCPILOT01,QS,01-703-1379,6003,CIBIC,"EXTENT OF CHANGE, IF ANY, SINCE BASELINE",ADCS-CGIC,,MINIMAL WORSENING,,5,5,,,,,,12,WEEK 24,168,TREATMENT,2014-03-08,168
CDISCPILOT01,QS,01-703-1439,6001,CIBIC,"EXTENT OF CHANGE, IF ANY, SINCE BASELINE",ADCS-CGIC,,NO CHANGE,,4,4,,,,,,8,WEEK 8,56,TREATMENT,2014-05-05,55
CDISCPILOT01,QS,01-703-1439,6002,CIBIC,"EXTENT OF CHANGE, IF ANY, SINCE BASELINE",ADCS-CGIC,,MINIMAL WORSENING,,5,5,,,,,,10,WEEK 16,112,TREATMENT,2014-06-30,111
CDISCPILOT01,QS,01-703-1439,6003,CIBIC,"EXTENT OF CHANGE, IF ANY, SINCE BASELINE",ADCS-CGIC,,MINIMAL WORSENING,,5,5,,,,,,12,WEEK 24,168,TREATMENT,2014-08-28,170
CDISCPILOT01,QS,01-704-1008,6001,CIBIC,"EXTENT OF CHANGE, IF ANY, SINCE BASELINE",ADCS-CGIC,,MINIMAL WORSENING,,5,5,,,,,,7,WEEK 6,42,TREATMENT,2013-02-25,44
CDISCPILOT01,QS,01-704-1009,6001,CIBIC,"EXTENT OF CHANGE, IF ANY, SINCE BASELINE",ADCS-CGIC,,NO CHANGE,,4,4,,,,,,5,WEEK 4,28,TREATMENT,2013-10-02,37
CDISCPILOT01,QS,01-704-1010,6001,CIBIC,"EXTENT OF CHANGE, IF ANY, SINCE BASELINE",ADCS-CGIC,,NO CHANGE,,4,4,,,,,,8,WEEK 8,56,TREATMENT,2014-04-24,63
CDISCPILOT01,QS,01-704-1010,6002,CIBIC,"EXTENT OF CHANGE, IF ANY, SINCE BASELINE",ADCS-CGIC,,MINIMAL IMPROVEMENT,,3,3,,,,,,10,WEEK 16,112,TREATMENT,2014-06-13,113
CDISCPILOT01,QS,01-704-1010,6003,CIBIC,"EXTENT OF CHANGE, IF ANY, SINCE BASELINE",ADCS-CGIC,,MINIMAL IMPROVEMENT,,3,3,,,,,,11,WEEK 20,140,TREATMENT,2014-07-09,139
CDISCPILOT01,QS,01-704-1017,6001,CIBIC,"EXTENT OF CHANGE, IF ANY, SINCE BASELINE",ADCS-CGIC,,NO CHANGE,,4,4,,,,,,7,WEEK 6,42,TREATMENT,2013-11-24,50
CDISCPILOT01,QS,01-704-1025,6001,CIBIC,"EXTENT OF CHANGE, IF ANY, SINCE BASELINE",ADCS-CGIC,,NO CHANGE,,4,4,,,,,,6,AMBUL ECG REMOVAL,30,TREATMENT,2013-11-29,64
CDISCPILOT01,QS,01-704-1065,6001,CIBIC,"EXTENT OF CHANGE, IF ANY, SINCE BASELINE",ADCS-CGIC,,NO CHANGE,,4,4,,,,,,8,WEEK 8,56,TREATMENT,2013-12-20,58
CDISCPILOT01,QS,01-704-1065,6002,CIBIC,"EXTENT OF CHANGE, IF ANY, SINCE BASELINE",ADCS-CGIC,,MINIMAL WORSENING,,5,5,,,,,,9,WEEK 12,84,TREATMENT,2013-12-24,62
CDISCPILOT01,QS,01-704-1074,6001,CIBIC,"EXTENT OF CHANGE, IF ANY, SINCE BASELINE",ADCS-CGIC,,NO CHANGE,,4,4,,,,,,8,WEEK 8,56,TREATMENT,2014-03-31,69
CDISCPILOT01,QS,01-704-1093,6001,CIBIC,"EXTENT OF CHANGE, IF ANY, SINCE BASELINE",ADCS-CGIC,,NO CHANGE,,4,4,,,,,,8,WEEK 8,56,TREATMENT,2013-05-11,58
CDISCPILOT01,QS,01-704-1093,6002,CIBIC,"EXTENT OF CHANGE, IF ANY, SINCE BASELINE",ADCS-CGIC,,NO CHANGE,,4,4,,,,,,10,WEEK 16,112,TREATMENT,2013-06-20,98
CDISCPILOT01,QS,01-704-1093,6003,CIBIC,"EXTENT OF CHANGE, IF ANY, SINCE BASELINE",ADCS-CGIC,,MODERATE WORSENING,,6,6,,,,,,201,RETRIEVAL,168,TREATMENT,2013-12-25,286
CDISCPILOT01,QS,01-704-1114,6001,CIBIC,"EXTENT OF CHANGE, IF ANY, SINCE BASELINE",ADCS-CGIC,,NO CHANGE,,4,4,,,,,,8,WEEK 8,56,TREATMENT,2013-03-26,63
CDISCPILOT01,QS,01-704-1114,6002,CIBIC,"EXTENT OF CHANGE, IF ANY, SINCE BASELINE",ADCS-CGIC,,NO CHANGE,,4,4,,,,,,10,WEEK 16,112,TREATMENT,2013-05-14,112
CDISCPILOT01,QS,01-704-1114,6003,CIBIC,"EXTENT OF CHANGE, IF ANY, SINCE BASELINE",ADCS-CGIC,,NO CHANGE,,4,4,,,,,,12,WEEK 24,168,TREATMENT,2013-07-08,167
CDISCPILOT01,QS,01-704-1120,6001,CIBIC,"EXTENT OF CHANGE, IF ANY, SINCE BASELINE",ADCS-CGIC,,NO CHANGE,,4,4,,,,,,8,WEEK 8,56,TREATMENT,2014-01-27,57
CDISCPILOT01,QS,01-704-1120,6002,CIBIC,"EXTENT OF CHANGE, IF ANY, SINCE BASELINE",ADCS-CGIC,,NO CHANGE,,4,4,,,,,,9,WEEK 12,84,TREATMENT,2014-02-03,64
CDISCPILOT01,QS,01-704-1127,6001,CIBIC,"EXTENT OF CHANGE, IF ANY, SINCE BASELINE",ADCS-CGIC,,NO CHANGE,,4,4,,,,,,8,WEEK 8,56,TREATMENT,2013-11-26,56
CDISCPILOT01,QS,01-704-1127,6002,CIBIC,"EXTENT OF CHANGE, IF ANY, SINCE BASELINE",ADCS-CGIC,,MINIMAL WORSENING,,5,5,,,,,,10,WEEK 16,112,TREATMENT,2014-01-21,112
CDISCPILOT01,QS,01-704-1127,6003,CIBIC,"EXTENT OF CHANGE, IF ANY, SINCE BASELINE",ADCS-CGIC,,MINIMAL WORSENING,,5,5,,,,,,12,WEEK 24,168,TREATMENT,2014-03-17,167
CDISCPILOT01,QS,01-704-1135,6001,CIBIC,"EXTENT OF CHANGE, IF ANY, SINCE BASELINE",ADCS-CGIC,,NO CHANGE,,4,4,,,,,,8,WEEK 8,56,TREATMENT,2013-12-25,56
CDISCPILOT01,QS,01-704-1135,6002,CIBIC,"EXTENT OF CHANGE, IF ANY, SINCE BASELINE",ADCS-CGIC,,NO CHANGE,,4,4,,,,,,10,WEEK 16,112,TREATMENT,2014-02-19,112
CDISCPILOT01,QS,01-704-1135,6003,CIBIC,"EXTENT OF CHANGE, IF ANY, SINCE BASELINE",ADCS-CGIC,,MODERATE WORSENING,,6,6,,,,,,12,WEEK 24,168,TREATMENT,2014-05-01,183
CDISCPILOT01,QS,01-704-1164,6001,CIBIC,"EXTENT OF CHANGE, IF ANY, SINCE BASELINE",ADCS-CGIC,,NO CHANGE,,4,4,,,,,,8,WEEK 8,56,TREATMENT,2012-11-15,58
CDISCPILOT01,QS,01-704-1164,6002,CIBIC,"EXTENT OF CHANGE, IF ANY, SINCE BASELINE",ADCS-CGIC,,MINIMAL WORSENING,,5,5,,,,,,10,WEEK 16,112,TREATMENT,2013-01-14,118
CDISCPILOT01,QS,01-704-1164,6003,CIBIC,"EXTENT OF CHANGE, IF ANY, SINCE BASELINE",ADCS-CGIC,,MINIMAL WORSENING,,5,5,,,,,,12,WEEK 24,168,TREATMENT,2013-03-17,180
CDISCPILOT01,QS,01-704-1218,6001,CIBIC,"EXTENT OF CHANGE, IF ANY, SINCE BASELINE",ADCS-CGIC,,MINIMAL WORSENING,,5,5,,,,,,8,WEEK 8,56,TREATMENT,2013-01-14,57
CDISCPILOT01,QS,01-704-1218,6002,CIBIC,"EXTENT OF CHANGE, IF ANY, SINCE BASELINE",ADCS-CGIC,,MINIMAL WORSENING,,5,5,,,,,,10,WEEK 16,112,TREATMENT,2013-03-18,120
CDISCPILOT01,QS,01-704-1218,6003,CIBIC,"EXTENT OF CHANGE, IF ANY, SINCE BASELINE",ADCS-CGIC,,MINIMAL WORSENING,,5,5,,,,,,12,WEEK 24,168,TREATMENT,2013-05-13,176
CDISCPILOT01,QS,01-704-1233,6001,CIBIC,"EXTENT OF CHANGE, IF ANY, SINCE BASELINE",ADCS-CGIC,,MINIMAL WORSENING,,5,5,,,,,,10,WEEK 16,112,TREATMENT,2013-07-11,113
CDISCPILOT01,QS,01-704-1241,6001,CIBIC,"EXTENT OF CHANGE, IF ANY, SINCE BASELINE",ADCS-CGIC,,NO CHANGE,,4,4,,,,,,8,WEEK 8,56,TREATMENT,2013-10-31,68
CDISCPILOT01,QS,01-704-1260,6001,CIBIC,"EXTENT OF CHANGE, IF ANY, SINCE BASELINE",ADCS-CGIC,,NO CHANGE,,4,4,,,,,,8,WEEK 8,56,TREATMENT,2012-10-24,56
CDISCPILOT01,QS,01-704-1266,6001,CIBIC,"EXTENT OF CHANGE, IF ANY, SINCE BASELINE",ADCS-CGIC,,NO CHANGE,,4,4,,,,,,8,WEEK 8,56,TREATMENT,2013-12-06,55
CDISCPILOT01,QS,01-704-1325,6001,CIBIC,"EXTENT OF CHANGE, IF ANY, SINCE BASELINE",ADCS-CGIC,,NO CHANGE,,4,4,,,,,,8,WEEK 8,56,TREATMENT,2014-06-18,57
CDISCPILOT01,QS,01-704-1325,6002,CIBIC,"EXTENT OF CHANGE, IF ANY, SINCE BASELINE",ADCS-CGIC,,NO CHANGE,,4,4,,,,,,10,WEEK 16,112,TREATMENT,2014-08-06,106
CDISCPILOT01,QS,01-704-1332,6001,CIBIC,"EXTENT OF CHANGE, IF ANY, SINCE BASELINE",ADCS-CGIC,,NO CHANGE,,4,4,,,,,,8,WEEK 8,56,TREATMENT,2014-02-03,57
CDISCPILOT01,QS,01-704-1351,6001,CIBIC,"EXTENT OF CHANGE, IF ANY, SINCE BASELINE",ADCS-CGIC,,NO CHANGE,,4,4,,,,,,8,WEEK 8,56,TREATMENT,2013-12-02,52
CDISCPILOT01,QS,01-704-1351,6002,CIBIC,"EXTENT OF CHANGE, IF ANY, SINCE BASELINE",ADCS-CGIC,,NO CHANGE,,4,4,,,,,,10,WEEK 16,112,TREATMENT,2014-01-26,107
CDISCPILOT01,QS,01-704-1351,6003,CIBIC,"EXTENT OF CHANGE, IF ANY, SINCE BASELINE",ADCS-CGIC,,MINIMAL WORSENING,,5,5,,,,,,12,WEEK 24,168,TREATMENT,2014-04-04,175
CDISCPILOT01,QS,01-704-1388,6001,CIBIC,"EXTENT OF CHANGE, IF ANY, SINCE BASELINE",ADCS-CGIC,,NO CHANGE,,4,4,,,,,,8,WEEK 8,56,TREATMENT,2013-01-30,55
CDISCPILOT01,QS,01-704-1388,6002,CIBIC,"EXTENT OF CHANGE, IF ANY, SINCE BASELINE",ADCS-CGIC,,NO CHANGE,,4,4,,,,,,10,WEEK 16,112,TREATMENT,2013-03-27,111
CDISCPILOT01,QS,01-704-1388,6003,CIBIC,"EXTENT OF CHANGE, IF ANY, SINCE BASELINE",ADCS-CGIC,,NO CHANGE,,4,4,,,,,,12,WEEK 24,168,TREATMENT,2013-05-23,168
CDISCPILOT01,QS,01-704-1435,6001,CIBIC,"EXTENT OF CHANGE, IF ANY, SINCE BASELINE",ADCS-CGIC,,NO CHANGE,,4,4,,,,,,8,WEEK 8,56,TREATMENT,2013-01-12,57
CDISCPILOT01,QS,01-704-1445,6001,CIBIC,"EXTENT OF CHANGE, IF ANY, SINCE BASELINE",ADCS-CGIC,,MODERATE WORSENING,,6,6,,,,,,8,WEEK 8,56,TREATMENT,2014-07-09,60
CDISCPILOT01,QS,01-704-1445,6002,CIBIC,"EXTENT OF CHANGE, IF ANY, SINCE BASELINE",ADCS-CGIC,,MINIMAL WORSENING,,5,5,,,,,,10,WEEK 16,112,TREATMENT,2014-09-03,116
CDISCPILOT01,QS,01-705-1031,6001,CIBIC,"EXTENT OF CHANGE, IF ANY, SINCE BASELINE",ADCS-CGIC,,NO CHANGE,,4,4,,,,,,8,WEEK 8,56,TREATMENT,2014-01-23,58
CDISCPILOT01,QS,01-705-1031,6002,CIBIC,"EXTENT OF CHANGE, IF ANY, SINCE BASELINE",ADCS-CGIC,,NO CHANGE,,4,4,,,,,,10,WEEK 16,112,TREATMENT,2014-03-20,114
CDISCPILOT01,QS,01-705-1031,6003,CIBIC,"EXTENT OF CHANGE, IF ANY, SINCE BASELINE",ADCS-CGIC,,NO CHANGE,,4,4,,,,,,12,WEEK 24,168,TREATMENT,2014-05-11,166
CDISCPILOT01,QS,01-705-1059,6001,CIBIC,"EXTENT OF CHANGE, IF ANY, SINCE BASELINE",ADCS-CGIC,,MINIMAL IMPROVEMENT,,3,3,,,,,,8,WEEK 8,56,TREATMENT,2013-10-03,60
CDISCPILOT01,QS,01-705-1059,6002,CIBIC,"EXTENT OF CHANGE, IF ANY, SINCE BASELINE",ADCS-CGIC,,MINIMAL IMPROVEMENT,,3,3,,,,,,10,WEEK 16,112,TREATMENT,2013-12-05,123
CDISCPILOT01,QS,01-705-1059,6003,CIBIC,"EXTENT OF CHANGE, IF ANY, SINCE BASELINE",ADCS-CGIC,,MINIMAL IMPROVEMENT,,3,3,,,,,,201,RETRIEVAL,168,TREATMENT,2014-02-06,186
CDISCPILOT01,QS,01-705-1186,6001,CIBIC,"EXTENT OF CHANGE, IF ANY, SINCE BASELINE",ADCS-CGIC,,NO CHANGE,,4,4,,,,,,5,WEEK 4,28,TREATMENT,2014-02-07,31
CDISCPILOT01,QS,01-705-1199,6001,CIBIC,"EXTENT OF CHANGE, IF ANY, SINCE BASELINE",ADCS-CGIC,,NO CHANGE,,4,4,,,,,,4,WEEK 2,14,TREATMENT,2013-09-29,14
CDISCPILOT01,QS,01-705-1280,6001,CIBIC,"EXTENT OF CHANGE, IF ANY, SINCE BASELINE",ADCS-CGIC,,NO CHANGE,,4,4,,,,,,8,WEEK 8,56,TREATMENT,2014-03-21,64
CDISCPILOT01,QS,01-705-1280,6002,CIBIC,"EXTENT OF CHANGE, IF ANY, SINCE BASELINE",ADCS-CGIC,,NO CHANGE,,4,4,,,,,,10,WEEK 16,112,TREATMENT,2014-05-16,120
CDISCPILOT01,QS,01-705-1280,6003,CIBIC,"EXTENT OF CHANGE, IF ANY, SINCE BASELINE",ADCS-CGIC,,NO CHANGE,,4,4,,,,,,12,WEEK 24,168,TREATMENT,2014-07-11,176
CDISCPILOT01,QS,01-705-1281,6001,CIBIC,"EXTENT OF CHANGE, IF ANY, SINCE BASELINE",ADCS-CGIC,,NO CHANGE,,4,4,,,,,,8,WEEK 8,56,TREATMENT,2014-01-21,55
CDISCPILOT01,QS,01-705-1281,6002,CIBIC,"EXTENT OF CHANGE, IF ANY, SINCE BASELINE",ADCS-CGIC,,NO CHANGE,,4,4,,,,,,10,WEEK 16,112,TREATMENT,2014-03-17,110
CDISCPILOT01,QS,01-705-1282,6001,CIBIC,"EXTENT OF CHANGE, IF ANY, SINCE BASELINE",ADCS-CGIC,,NO CHANGE,,4,4,,,,,,8,WEEK 8,56,TREATMENT,2013-02-20,57
CDISCPILOT01,QS,01-705-1282,6002,CIBIC,"EXTENT OF CHANGE, IF ANY, SINCE BASELINE",ADCS-CGIC,,NO CHANGE,,4,4,,,,,,10,WEEK 16,112,TREATMENT,2013-04-16,112
CDISCPILOT01,QS,01-705-1282,6003,CIBIC,"EXTENT OF CHANGE, IF ANY, SINCE BASELINE",ADCS-CGIC,,NO CHANGE,,4,4,,,,,,12,WEEK 24,168,TREATMENT,2013-06-11,168
CDISCPILOT01,QS,01-705-1292,6001,CIBIC,"EXTENT OF CHANGE, IF ANY, SINCE BASELINE",ADCS-CGIC,,NO CHANGE,,4,4,,,,,,8,WEEK 8,56,TREATMENT,2014-01-02,81
CDISCPILOT01,QS,01-705-1292,6002,CIBIC,"EXTENT OF CHANGE, IF ANY, SINCE BASELINE",ADCS-CGIC,,NO CHANGE,,4,4,,,,,,10,WEEK 16,112,TREATMENT,2014-03-03,141
CDISCPILOT01,QS,01-705-1292,6003,CIBIC,"EXTENT OF CHANGE, IF ANY, SINCE BASELINE",ADCS-CGIC,,MINIMAL IMPROVEMENT,,3,3,,,,,,12,WEEK 24,168,TREATMENT,2014-04-28,197
CDISCPILOT01,QS,01-705-1303,6001,CIBIC,"EXTENT OF CHANGE, IF ANY, SINCE BASELINE",ADCS-CGIC,,NO CHANGE,,4,4,,,,,,8,WEEK 8,56,TREATMENT,2014-02-10,57
CDISCPILOT01,QS,01-705-1303,6002,CIBIC,"EXTENT OF CHANGE, IF ANY, SINCE BASELINE",ADCS-CGIC,,NO CHANGE,,4,4,,,,,,10,WEEK 16,112,TREATMENT,2014-04-07,113
CDISCPILOT01,QS,01-705-1310,6001,CIBIC,"EXTENT OF CHANGE, IF ANY, SINCE BASELINE",ADCS-CGIC,,NO CHANGE,,4,4,,,,,,8,WEEK 8,56,TREATMENT,2013-12-26,55
CDISCPILOT01,QS,01-705-1310,6002,CIBIC,"EXTENT OF CHANGE, IF ANY, SINCE BASELINE",ADCS-CGIC,,MINIMAL IMPROVEMENT,,3,3,,,,,,9,WEEK 12,84,TREATMENT,2014-01-23,83
CDISCPILOT01,QS,01-705-1349,6001,CIBIC,"EXTENT OF CHANGE, IF ANY, SINCE BASELINE",ADCS-CGIC,,MINIMAL IMPROVEMENT,,3,3,,,,,,8,WEEK 8,56,TREATMENT,2013-05-01,53
CDISCPILOT01,QS,01-705-1349,6002,CIBIC,"EXTENT OF CHANGE, IF ANY, SINCE BASELINE",ADCS-CGIC,,NO CHANGE,,4,4,,,,,,10,WEEK 16,112,TREATMENT,2013-06-25,108
CDISCPILOT01,QS,01-705-1349,6003,CIBIC,"EXTENT OF CHANGE, IF ANY, SINCE BASELINE",ADCS-CGIC,,MINIMAL IMPROVEMENT,,3,3,,,,,,12,WEEK 24,168,TREATMENT,2013-08-25,169
CDISCPILOT01,QS,01-705-1393,6001,CIBIC,"EXTENT OF CHANGE, IF ANY, SINCE BASELINE",ADCS-CGIC,,NO CHANGE,,4,4,,,,,,8,WEEK 8,56,TREATMENT,2012-11-02,57
CDISCPILOT01,QS,01-705-1393,6002,CIBIC,"EXTENT OF CHANGE, IF ANY, SINCE BASELINE",ADCS-CGIC,,NO CHANGE,,4,4,,,,,,10,WEEK 16,112,TREATMENT,2013-01-02,118
CDISCPILOT01,QS,01-705-1393,6003,CIBIC,"EXTENT OF CHANGE, IF ANY, SINCE BASELINE",ADCS-CGIC,,MINIMAL WORSENING,,5,5,,,,,,11,WEEK 20,140,TREATMENT,2013-02-20,167
CDISCPILOT01,QS,01-705-1431,6001,CIBIC,"EXTENT OF CHANGE, IF ANY, SINCE BASELINE",ADCS-CGIC,,NO CHANGE,,4,4,,,,,,8,WEEK 8,56,TREATMENT,2013-08-21,60
CDISCPILOT01,QS,01-705-1431,6002,CIBIC,"EXTENT OF CHANGE, IF ANY, SINCE BASELINE",ADCS-CGIC,,MINIMAL IMPROVEMENT,,3,3,,,,,,10,WEEK 16,112,TREATMENT,2013-10-17,117
CDISCPILOT01,QS,01-705-1431,6003,CIBIC,"EXTENT OF CHANGE, IF ANY, SINCE BASELINE",ADCS-CGIC,,MINIMAL IMPROVEMENT,,3,3,,,,,,12,WEEK 24,168,TREATMENT,2013-12-05,166
CDISCPILOT01,QS,01-706-1041,6001,CIBIC,"EXTENT OF CHANGE, IF ANY, SINCE BASELINE",ADCS-CGIC,,NO CHANGE,,4,4,,,,,,8,WEEK 8,56,TREATMENT,2014-03-04,64
CDISCPILOT01,QS,01-706-1041,6002,CIBIC,"EXTENT OF CHANGE, IF ANY, SINCE BASELINE",ADCS-CGIC,,MINIMAL WORSENING,,5,5,,,,,,10,WEEK 16,112,TREATMENT,2014-05-06,127
CDISCPILOT01,QS,01-706-1041,6003,CIBIC,"EXTENT OF CHANGE, IF ANY, SINCE BASELINE",ADCS-CGIC,,NO CHANGE,,4,4,,,,,,12,WEEK 24,168,TREATMENT,2014-07-15,197
CDISCPILOT01,QS,01-706-1049,6001,CIBIC,"EXTENT OF CHANGE, IF ANY, SINCE BASELINE",ADCS-CGIC,,NO CHANGE,,4,4,,,,,,7,WEEK 6,42,TREATMENT,2013-06-25,43
CDISCPILOT01,QS,01-706-1384,6001,CIBIC,"EXTENT OF CHANGE, IF ANY, SINCE BASELINE",ADCS-CGIC,,NO CHANGE,,4,4,,,,,,4,WEEK 2,14,TREATMENT,2012-09-29,15
CDISCPILOT01,QS,01-707-1037,6001,CIBIC,"EXTENT OF CHANGE, IF ANY, SINCE BASELINE",ADCS-CGIC,,NO CHANGE,,4,4,,,,,,4,WEEK 2,14,TREATMENT,2014-01-08,20
CDISCPILOT01,QS,01-707-1206,6001,CIBIC,"EXTENT OF CHANGE, IF ANY, SINCE BASELINE",ADCS-CGIC,,NO CHANGE,,4,4,,,,,,8,WEEK 8,56,TREATMENT,2013-12-23,57
CDISCPILOT01,QS,01-707-1206,6002,CIBIC,"EXTENT OF CHANGE, IF ANY, SINCE BASELINE",ADCS-CGIC,,MINIMAL WORSENING,,5,5,,,,,,10,WEEK 16,112,TREATMENT,2014-02-16,112
CDISCPILOT01,QS,01-707-1206,6003,CIBIC,"EXTENT OF CHANGE, IF ANY, SINCE BASELINE",ADCS-CGIC,,NO CHANGE,,4,4,,,,,,12,WEEK 24,168,TREATMENT,2014-04-13,168
CDISCPILOT01,QS,01-708-1019,6001,CIBIC,"EXTENT OF CHANGE, IF ANY, SINCE BASELINE",ADCS-CGIC,,MINIMAL WORSENING,,5,5,,,,,,4,WEEK 2,14,TREATMENT,2014-01-23,35
CDISCPILOT01,QS,01-708-1032,6001,CIBIC,"EXTENT OF CHANGE, IF ANY, SINCE BASELINE",ADCS-CGIC,,NO CHANGE,,4,4,,,,,,5,WEEK 4,28,TREATMENT,2013-03-09,29
CDISCPILOT01,QS,01-708-1084,6001,CIBIC,"EXTENT OF CHANGE, IF ANY, SINCE BASELINE",ADCS-CGIC,,MINIMAL IMPROVEMENT,,3,3,,,,,,8,WEEK 8,56,TREATMENT,2013-07-07,60
CDISCPILOT01,QS,01-708-1084,6002,CIBIC,"EXTENT OF CHANGE, IF ANY, SINCE BASELINE",ADCS-CGIC,,MINIMAL IMPROVEMENT,,3,3,,,,,,10,WEEK 16,112,TREATMENT,2013-09-01,116
CDISCPILOT01,QS,01-708-1084,6003,CIBIC,"EXTENT OF CHANGE, IF ANY, SINCE BASELINE",ADCS-CGIC,,NO CHANGE,,4,4,,,,,,12,WEEK 24,168,TREATMENT,2013-10-28,173
CDISCPILOT01,QS,01-708-1087,6001,CIBIC,"EXTENT OF CHANGE, IF ANY, SINCE BASELINE",ADCS-CGIC,,MINIMAL IMPROVEMENT,,3,3,,,,,,8,WEEK 8,56,TREATMENT,2012-12-22,62
CDISCPILOT01,QS,01-708-1087,6002,CIBIC,"EXTENT OF CHANGE, IF ANY, SINCE BASELINE",ADCS-CGIC,,MINIMAL WORSENING,,5,5,,,,,,10,WEEK 16,112,TREATMENT,2013-02-16,118
CDISCPILOT01,QS,01-708-1087,6003,CIBIC,"EXTENT OF CHANGE, IF ANY, SINCE BASELINE",ADCS-CGIC,,NO CHANGE,,4,4,,,,,,12,WEEK 24,168,TREATMENT,2013-04-10,171
CDISCPILOT01,QS,01-708-1158,6001,CIBIC,"EXTENT OF CHANGE, IF ANY, SINCE BASELINE",ADCS-CGIC,,MINIMAL WORSENING,,5,5,,,,,,7,WEEK 6,42,TREATMENT,2014-03-22,43
CDISCPILOT01,QS,01-708-1171,6001,CIBIC,"EXTENT OF CHANGE, IF ANY, SINCE BASELINE",ADCS-CGIC,,NO CHANGE,,4,4,,,,,,8,WEEK 8,56,TREATMENT,2013-01-28,54
CDISCPILOT01,QS,01-708-1171,6002,CIBIC,"EXTENT OF CHANGE, IF ANY, SINCE BASELINE",ADCS-CGIC,,MINIMAL WORSENING,,5,5,,,,,,10,WEEK 16,112,TREATMENT,2013-03-25,110
CDISCPILOT01,QS,01-708-1171,6003,CIBIC,"EXTENT OF CHANGE, IF ANY, SINCE BASELINE",ADCS-CGIC,,MINIMAL WORSENING,,5,5,,,,,,12,WEEK 24,168,TREATMENT,2013-05-20,166
CDISCPILOT01,QS,01-708-1178,6001,CIBIC,"EXTENT OF CHANGE, IF ANY, SINCE BASELINE",ADCS-CGIC,,MINIMAL WORSENING,,5,5,,,,,,8,WEEK 8,56,TREATMENT,2014-03-09,71
CDISCPILOT01,QS,01-708-1178,6002,CIBIC,"EXTENT OF CHANGE, IF ANY, SINCE BASELINE",ADCS-CGIC,,MINIMAL IMPROVEMENT,,3,3,,,,,,9,WEEK 12,84,TREATMENT,2014-04-06,99
CDISCPILOT01,QS,01-708-1213,6001,CIBIC,"EXTENT OF CHANGE, IF ANY, SINCE BASELINE",ADCS-CGIC,,NO CHANGE,,4,4,,,,,,5,WEEK 4,28,TREATMENT,2013-02-26,18
CDISCPILOT01,QS,01-708-1216,6001,CIBIC,"EXTENT OF CHANGE, IF ANY, SINCE BASELINE",ADCS-CGIC,,MINIMAL IMPROVEMENT,,3,3,,,,,,7,WEEK 6,42,TREATMENT,2012-12-06,44
CDISCPILOT01,QS,01-708-1253,6001,CIBIC,"EXTENT OF CHANGE, IF ANY, SINCE BASELINE",ADCS-CGIC,,MINIMAL IMPROVEMENT,,3,3,,,,,,8,WEEK 8,56,TREATMENT,2013-07-09,64
CDISCPILOT01,QS,01-708-1253,6002,CIBIC,"EXTENT OF CHANGE, IF ANY, SINCE BASELINE",ADCS-CGIC,,NO CHANGE,,4,4,,,,,,10,WEEK 16,112,TREATMENT,2013-09-02,119
CDISCPILOT01,QS,01-708-1253,6003,CIBIC,"EXTENT OF CHANGE, IF ANY, SINCE BASELINE",ADCS-CGIC,,NO CHANGE,,4,4,,,,,,12,WEEK 24,168,TREATMENT,2013-10-27,174
CDISCPILOT01,QS,01-708-1272,6001,CIBIC,"EXTENT OF CHANGE, IF ANY, SINCE BASELINE",ADCS-CGIC,,MINIMAL IMPROVEMENT,,3,3,,,,,,8,WEEK 8,56,TREATMENT,2013-04-04,58
CDISCPILOT01,QS,01-708-1286,6001,CIBIC,"EXTENT OF CHANGE, IF ANY, SINCE BASELINE",ADCS-CGIC,,MINIMAL IMPROVEMENT,,3,3,,,,,,8,WEEK 8,56,TREATMENT,2013-11-03,55
CDISCPILOT01,QS,01-708-1286,6002,CIBIC,"EXTENT OF CHANGE, IF ANY, SINCE BASELINE",ADCS-CGIC,,NO CHANGE,,4,4,,,,,,10,WEEK 16,112,TREATMENT,2013-12-29,111
CDISCPILOT01,QS,01-708-1286,6003,CIBIC,"EXTENT OF CHANGE, IF ANY, SINCE BASELINE",ADCS-CGIC,,MINIMAL IMPROVEMENT,,3,3,,,,,,12,WEEK 24,168,TREATMENT,2014-02-23,167
CDISCPILOT01,QS,01-708-1296,6001,CIBIC,"EXTENT OF CHANGE, IF ANY, SINCE BASELINE",ADCS-CGIC,,MINIMAL WORSENING,,5,5,,,,,,8,WEEK 8,56,TREATMENT,2013-08-07,55
CDISCPILOT01,QS,01-708-1296,6002,CIBIC,"EXTENT OF CHANGE, IF ANY, SINCE BASELINE",ADCS-CGIC,,MINIMAL WORSENING,,5,5,,,,,,10,WEEK 16,112,TREATMENT,2013-10-02,111
CDISCPILOT01,QS,01-708-1296,6003,CIBIC,"EXTENT OF CHANGE, IF ANY, SINCE BASELINE",ADCS-CGIC,,MINIMAL IMPROVEMENT,,3,3,,,,,,12,WEEK 24,168,TREATMENT,2013-11-27,167
CDISCPILOT01,QS,01-708-1297,6001,CIBIC,"EXTENT OF CHANGE, IF ANY, SINCE BASELINE",ADCS-CGIC,,MINIMAL WORSENING,,5,5,,,,,,8,WEEK 8,56,TREATMENT,2013-03-19,54
CDISCPILOT01,QS,01-708-1297,6002,CIBIC,"EXTENT OF CHANGE, IF ANY, SINCE BASELINE",ADCS-CGIC,,MINIMAL WORSENING,,5,5,,,,,,10,WEEK 16,112,TREATMENT,2013-05-08,104
CDISCPILOT01,QS,01-708-1316,6001,CIBIC,"EXTENT OF CHANGE, IF ANY, SINCE BASELINE",ADCS-CGIC,,MINIMAL IMPROVEMENT,,3,3,,,,,,8,WEEK 8,56,TREATMENT,2013-10-25,64
CDISCPILOT01,QS,01-708-1316,6002,CIBIC,"EXTENT OF CHANGE, IF ANY, SINCE BASELINE",ADCS-CGIC,,NO CHANGE,,4,4,,,,,,10,WEEK 16,112,TREATMENT,2013-12-21,121
CDISCPILOT01,QS,01-708-1316,6003,CIBIC,"EXTENT OF CHANGE, IF ANY, SINCE BASELINE",ADCS-CGIC,,NO CHANGE,,4,4,,,,,,12,WEEK 24,168,TREATMENT,2014-02-15,177
CDISCPILOT01,QS,01-708-1336,6001,CIBIC,"EXTENT OF CHANGE, IF ANY, SINCE BASELINE",ADCS-CGIC,,MINIMAL WORSENING,,5,5,,,,,,8,WEEK 8,56,TREATMENT,2013-01-29,54
CDISCPILOT01,QS,01-708-1336,6002,CIBIC,"EXTENT OF CHANGE, IF ANY, SINCE BASELINE",ADCS-CGIC,,MINIMAL WORSENING,,5,5,,,,,,10,WEEK 16,112,TREATMENT,2013-03-27,111
CDISCPILOT01,QS,01-708-1336,6003,CIBIC,"EXTENT OF CHANGE, IF ANY, SINCE BASELINE",ADCS-CGIC,,MODERATE WORSENING,,6,6,,,,,,12,WEEK 24,168,TREATMENT,2013-05-22,167
CDISCPILOT01,QS,01-708-1342,6001,CIBIC,"EXTENT OF CHANGE, IF ANY, SINCE BASELINE",ADCS-CGIC,,MINIMAL IMPROVEMENT,,3,3,,,,,,8,WEEK 8,56,TREATMENT,2013-02-23,57
CDISCPILOT01,QS,01-708-1342,6002,CIBIC,"EXTENT OF CHANGE, IF ANY, SINCE BASELINE",ADCS-CGIC,,NO CHANGE,,4,4,,,,,,10,WEEK 16,112,TREATMENT,2013-04-20,113
CDISCPILOT01,QS,01-708-1342,6003,CIBIC,"EXTENT OF CHANGE, IF ANY, SINCE BASELINE",ADCS-CGIC,,MINIMAL WORSENING,,5,5,,,,,,12,WEEK 24,168,TREATMENT,2013-06-15,169
CDISCPILOT01,QS,01-708-1347,6001,CIBIC,"EXTENT OF CHANGE, IF ANY, SINCE BASELINE",ADCS-CGIC,,MINIMAL IMPROVEMENT,,3,3,,,,,,8,WEEK 8,56,TREATMENT,2013-06-13,55
CDISCPILOT01,QS,01-708-1347,6002,CIBIC,"EXTENT OF CHANGE, IF ANY, SINCE BASELINE",ADCS-CGIC,,NO CHANGE,,4,4,,,,,,9,WEEK 12,84,TREATMENT,2013-06-18,60
CDISCPILOT01,QS,01-708-1348,6001,CIBIC,"EXTENT OF CHANGE, IF ANY, SINCE BASELINE",ADCS-CGIC,,MINIMAL IMPROVEMENT,,3,3,,,,,,8,WEEK 8,56,TREATMENT,2013-10-06,63
CDISCPILOT01,QS,01-708-1348,6002,CIBIC,"EXTENT OF CHANGE, IF ANY, SINCE BASELINE",ADCS-CGIC,,MINIMAL WORSENING,,5,5,,,,,,10,WEEK 16,112,TREATMENT,2013-12-01,119
CDISCPILOT01,QS,01-708-1348,6003,CIBIC,"EXTENT OF CHANGE, IF ANY, SINCE BASELINE",ADCS-CGIC,,MINIMAL IMPROVEMENT,,3,3,,,,,,12,WEEK 24,168,TREATMENT,2014-02-03,183
CDISCPILOT01,QS,01-708-1353,6001,CIBIC,"EXTENT OF CHANGE, IF ANY, SINCE BASELINE",ADCS-CGIC,,MINIMAL WORSENING,,5,5,,,,,,8,WEEK 8,56,TREATMENT,2013-09-10,69
CDISCPILOT01,QS,01-708-1378,6001,CIBIC,"EXTENT OF CHANGE, IF ANY, SINCE BASELINE",ADCS-CGIC,,MINIMAL IMPROVEMENT,,3,3,,,,,,8,WEEK 8,56,TREATMENT,2013-11-05,64
CDISCPILOT01,QS,01-708-1378,6002,CIBIC,"EXTENT OF CHANGE, IF ANY, SINCE BASELINE",ADCS-CGIC,,MINIMAL IMPROVEMENT,,3,3,,,,,,10,WEEK 16,112,TREATMENT,2014-01-12,132
CDISCPILOT01,QS,01-708-1378,6003,CIBIC,"EXTENT OF CHANGE, IF ANY, SINCE BASELINE",ADCS-CGIC,,MINIMAL IMPROVEMENT,,3,3,,,,,,11,WEEK 20,140,TREATMENT,2014-01-28,148
CDISCPILOT01,QS,01-708-1406,6001,CIBIC,"EXTENT OF CHANGE, IF ANY, SINCE BASELINE",ADCS-CGIC,,MINIMAL IMPROVEMENT,,3,3,,,,,,8,WEEK 8,56,TREATMENT,2014-02-24,61
CDISCPILOT01,QS,01-708-1406,6002,CIBIC,"EXTENT OF CHANGE, IF ANY, SINCE BASELINE",ADCS-CGIC,,MINIMAL WORSENING,,5,5,,,,,,10,WEEK 16,112,TREATMENT,2014-04-16,112
CDISCPILOT01,QS,01-708-1406,6003,CIBIC,"EXTENT OF CHANGE, IF ANY, SINCE BASELINE",ADCS-CGIC,,MINIMAL WORSENING,,5,5,,,,,,12,WEEK 24,168,TREATMENT,2014-06-16,173
CDISCPILOT01,QS,01-708-1428,6001,CIBIC,"EXTENT OF CHANGE, IF ANY, SINCE BASELINE",ADCS-CGIC,,MINIMAL WORSENING,,5,5,,,,,,8,WEEK 8,56,TREATMENT,2014-01-31,84
CDISCPILOT01,QS,01-709-1001,6001,CIBIC,"EXTENT OF CHANGE, IF ANY, SINCE BASELINE",ADCS-CGIC,,MINIMAL IMPROVEMENT,,3,3,,,,,,8,WEEK 8,56,TREATMENT,2013-12-03,57
CDISCPILOT01,QS,01-709-1001,6002,CIBIC,"EXTENT OF CHANGE, IF ANY, SINCE BASELINE",ADCS-CGIC,,MINIMAL WORSENING,,5,5,,,,,,10,WEEK 16,112,TREATMENT,2014-01-28,113
CDISCPILOT01,QS,01-709-1001,6003,CIBIC,"EXTENT OF CHANGE, IF ANY, SINCE BASELINE",ADCS-CGIC,,MINIMAL WORSENING,,5,5,,,,,,12,WEEK 24,168,TREATMENT,2014-03-17,161
CDISCPILOT01,QS,01-709-1020,6001,CIBIC,"EXTENT OF CHANGE, IF ANY, SINCE BASELINE",ADCS-CGIC,,MODERATE IMPROVEMENT,,2,2,,,,,,8,WEEK 8,56,TREATMENT,2013-01-26,57
CDISCPILOT01,QS,01-709-1020,6002,CIBIC,"EXTENT OF CHANGE, IF ANY, SINCE BASELINE",ADCS-CGIC,,MINIMAL IMPROVEMENT,,3,3,,,,,,10,WEEK 16,112,TREATMENT,2013-03-23,113
CDISCPILOT01,QS,01-709-1020,6003,CIBIC,"EXTENT OF CHANGE, IF ANY, SINCE BASELINE",ADCS-CGIC,,NO CHANGE,,4,4,,,,,,12,WEEK 24,168,TREATMENT,2013-05-18,169
CDISCPILOT01,QS,01-709-1029,6001,CIBIC,"EXTENT OF CHANGE, IF ANY, SINCE BASELINE",ADCS-CGIC,,MINIMAL WORSENING,,5,5,,,,,,8,WEEK 8,56,TREATMENT,2013-02-19,57
CDISCPILOT01,QS,01-709-1029,6002,CIBIC,"EXTENT OF CHANGE, IF ANY, SINCE BASELINE",ADCS-CGIC,,NO CHANGE,,4,4,,,,,,10,WEEK 16,112,TREATMENT,2013-04-16,113
CDISCPILOT01,QS,01-709-1029,6003,CIBIC,"EXTENT OF CHANGE, IF ANY, SINCE BASELINE",ADCS-CGIC,,MINIMAL WORSENING,,5,5,,,,,,12,WEEK 24,168,TREATMENT,2013-06-12,170
CDISCPILOT01,QS,01-709-1081,6001,CIBIC,"EXTENT OF CHANGE, IF ANY, SINCE BASELINE",ADCS-CGIC,,MINIMAL IMPROVEMENT,,3,3,,,,,,8,WEEK 8,56,TREATMENT,2014-03-15,57
CDISCPILOT01,QS,01-709-1081,6002,CIBIC,"EXTENT OF CHANGE, IF ANY, SINCE BASELINE",ADCS-CGIC,,MINIMAL IMPROVEMENT,,3,3,,,,,,10,WEEK 16,112,TREATMENT,2014-05-10,113
CDISCPILOT01,QS,01-709-1088,6001,CIBIC,"EXTENT OF CHANGE, IF ANY, SINCE BASELINE",ADCS-CGIC,,MINIMAL IMPROVEMENT,,3,3,,,,,,8,WEEK 8,56,TREATMENT,2014-06-01,51
CDISCPILOT01,QS,01-709-1088,6002,CIBIC,"EXTENT OF CHANGE, IF ANY, SINCE BASELINE",ADCS-CGIC,,MINIMAL IMPROVEMENT,,3,3,,,,,,10,WEEK 16,112,TREATMENT,2014-08-02,113
CDISCPILOT01,QS,01-709-1088,6003,CIBIC,"EXTENT OF CHANGE, IF ANY, SINCE BASELINE",ADCS-CGIC,,MINIMAL IMPROVEMENT,,3,3,,,,,,12,WEEK 24,168,TREATMENT,2014-09-27,169
CDISCPILOT01,QS,01-709-1099,6001,CIBIC,"EXTENT OF CHANGE, IF ANY, SINCE BASELINE",ADCS-CGIC,,MINIMAL IMPROVEMENT,,3,3,,,,,,8,WEEK 8,56,TREATMENT,2013-12-26,63
CDISCPILOT01,QS,01-709-1099,6002,CIBIC,"EXTENT OF CHANGE, IF ANY, SINCE BASELINE",ADCS-CGIC,,MINIMAL IMPROVEMENT,,3,3,,,,,,10,WEEK 16,112,TREATMENT,2014-02-14,113
CDISCPILOT01,QS,01-709-1099,6003,CIBIC,"EXTENT OF CHANGE, IF ANY, SINCE BASELINE",ADCS-CGIC,,MINIMAL WORSENING,,5,5,,,,,,12,WEEK 24,168,TREATMENT,2014-04-11,169
CDISCPILOT01,QS,01-709-1102,6001,CIBIC,"EXTENT OF CHANGE, IF ANY, SINCE BASELINE",ADCS-CGIC,,MINIMAL WORSENING,,5,5,,,,,,8,WEEK 8,56,TREATMENT,2013-03-12,57
CDISCPILOT01,QS,01-709-1102,6002,CIBIC,"EXTENT OF CHANGE, IF ANY, SINCE BASELINE",ADCS-CGIC,,MINIMAL WORSENING,,5,5,,,,,,9,WEEK 12,84,TREATMENT,2013-03-31,76
CDISCPILOT01,QS,01-709-1168,6001,CIBIC,"EXTENT OF CHANGE, IF ANY, SINCE BASELINE",ADCS-CGIC,,MINIMAL WORSENING,,5,5,,,,,,8,WEEK 8,56,TREATMENT,2013-09-27,57
CDISCPILOT01,QS,01-709-1217,6001,CIBIC,"EXTENT OF CHANGE, IF ANY, SINCE BASELINE",ADCS-CGIC,,MODERATE WORSENING,,6,6,,,,,,8,WEEK 8,56,TREATMENT,2013-04-29,57
CDISCPILOT01,QS,01-709-1217,6002,CIBIC,"EXTENT OF CHANGE, IF ANY, SINCE BASELINE",ADCS-CGIC,,MINIMAL WORSENING,,5,5,,,,,,10,WEEK 16,112,TREATMENT,2013-06-25,114
CDISCPILOT01,QS,01-709-1238,6001,CIBIC,"EXTENT OF CHANGE, IF ANY, SINCE BASELINE",ADCS-CGIC,,NO CHANGE,,4,4,,,,,,8,WEEK 8,56,TREATMENT,2013-07-02,49
CDISCPILOT01,QS,01-709-1238,6002,CIBIC,"EXTENT OF CHANGE, IF ANY, SINCE BASELINE",ADCS-CGIC,,NO CHANGE,,4,4,,,,,,9,WEEK 12,84,TREATMENT,2013-08-07,85
CDISCPILOT01,QS,01-709-1259,6001,CIBIC,"EXTENT OF CHANGE, IF ANY, SINCE BASELINE",ADCS-CGIC,,MINIMAL WORSENING,,5,5,,,,,,8,WEEK 8,56,TREATMENT,2013-03-23,57
CDISCPILOT01,QS,01-709-1259,6002,CIBIC,"EXTENT OF CHANGE, IF ANY, SINCE BASELINE",ADCS-CGIC,,MINIMAL WORSENING,,5,5,,,,,,10,WEEK 16,112,TREATMENT,2013-05-11,106
CDISCPILOT01,QS,01-709-1259,6003,CIBIC,"EXTENT OF CHANGE, IF ANY, SINCE BASELINE",ADCS-CGIC,,MINIMAL WORSENING,,5,5,,,,,,11,WEEK 20,140,TREATMENT,2013-06-13,139
CDISCPILOT01,QS,01-709-1285,6001,CIBIC,"EXTENT OF CHANGE, IF ANY, SINCE BASELINE",ADCS-CGIC,,MINIMAL IMPROVEMENT,,3,3,,,,,,8,WEEK 8,56,TREATMENT,2013-05-19,57
CDISCPILOT01,QS,01-709-1285,6002,CIBIC,"EXTENT OF CHANGE, IF ANY, SINCE BASELINE",ADCS-CGIC,,MINIMAL IMPROVEMENT,,3,3,,,,,,9,WEEK 12,84,TREATMENT,2013-05-31,69
CDISCPILOT01,QS,01-709-1301,6001,CIBIC,"EXTENT OF CHANGE, IF ANY, SINCE BASELINE",ADCS-CGIC,,NO CHANGE,,4,4,,,,,,8,WEEK 8,56,TREATMENT,2013-09-13,57
CDISCPILOT01,QS,01-709-1301,6002,CIBIC,"EXTENT OF CHANGE, IF ANY, SINCE BASELINE",ADCS-CGIC,,NO CHANGE,,4,4,,,,,,10,WEEK 16,112,TREATMENT,2013-11-08,113
CDISCPILOT01,QS,01-709-1301,6003,CIBIC,"EXTENT OF CHANGE, IF ANY, SINCE BASELINE",ADCS-CGIC,,MINIMAL WORSENING,,5,5,,,,,,12,WEEK 24,168,TREATMENT,2014-01-04,170
CDISCPILOT01,QS,01-709-1306,6001,CIBIC,"EXTENT OF CHANGE, IF ANY, SINCE BASELINE",ADCS-CGIC,,NO CHANGE,,4,4,,,,,,8,WEEK 8,56,TREATMENT,2014-04-02,59
CDISCPILOT01,QS,01-709-1306,6002,CIBIC,"EXTENT OF CHANGE, IF ANY, SINCE BASELINE",ADCS-CGIC,,MINIMAL WORSENING,,5,5,,,,,,10,WEEK 16,112,TREATMENT,2014-05-28,115
CDISCPILOT01,QS,01-709-1306,6003,CIBIC,"EXTENT OF CHANGE, IF ANY, SINCE BASELINE",ADCS-CGIC,,MINIMAL WORSENING,,5,5,,,,,,11,WEEK 20,140,TREATMENT,2014-06-25,143
CDISCPILOT01,QS,01-709-1309,6001,CIBIC,"EXTENT OF CHANGE, IF ANY, SINCE BASELINE",ADCS-CGIC,,MINIMAL IMPROVEMENT,,3,3,,,,,,8,WEEK 8,56,TREATMENT,2013-08-15,58
CDISCPILOT01,QS,01-709-1309,6002,CIBIC,"EXTENT OF CHANGE, IF ANY, SINCE BASELINE",ADCS-CGIC,,MINIMAL IMPROVEMENT,,3,3,,,,,,10,WEEK 16,112,TREATMENT,2013-10-16,120
CDISCPILOT01,QS,01-709-1309,6003,CIBIC,"EXTENT OF CHANGE, IF ANY, SINCE BASELINE",ADCS-CGIC,,NO CHANGE,,4,4,,,,,,12,WEEK 24,168,TREATMENT,2013-12-05,170
CDISCPILOT01,QS,01-709-1312,6001,CIBIC,"EXTENT OF CHANGE, IF ANY, SINCE BASELINE",ADCS-CGIC,,NO CHANGE,,4,4,,,,,,8,WEEK 8,56,TREATMENT,2014-06-13,55
CDISCPILOT01,QS,01-709-1312,6002,CIBIC,"EXTENT OF CHANGE, IF ANY, SINCE BASELINE",ADCS-CGIC,,NO CHANGE,,4,4,,,,,,10,WEEK 16,112,TREATMENT,2014-08-10,113
CDISCPILOT01,QS,01-709-1312,6003,CIBIC,"EXTENT OF CHANGE, IF ANY, SINCE BASELINE",ADCS-CGIC,,MINIMAL WORSENING,,5,5,,,,,,12,WEEK 24,168,TREATMENT,2014-10-05,169
CDISCPILOT01,QS,01-709-1326,6001,CIBIC,"EXTENT OF CHANGE, IF ANY, SINCE BASELINE",ADCS-CGIC,,NO CHANGE,,4,4,,,,,,8,WEEK 8,56,TREATMENT,2013-06-01,58
CDISCPILOT01,QS,01-709-1326,6002,CIBIC,"EXTENT OF CHANGE, IF ANY, SINCE BASELINE",ADCS-CGIC,,NO CHANGE,,4,4,,,,,,10,WEEK 16,112,TREATMENT,2013-07-26,113
CDISCPILOT01,QS,01-709-1326,6003,CIBIC,"EXTENT OF CHANGE, IF ANY, SINCE BASELINE",ADCS-CGIC,,MINIMAL IMPROVEMENT,,3,3,,,,,,12,WEEK 24,168,TREATMENT,2013-09-20,169
CDISCPILOT01,QS,01-709-1329,6001,CIBIC,"EXTENT OF CHANGE, IF ANY, SINCE BASELINE",ADCS-CGIC,,MINIMAL WORSENING,,5,5,,,,,,4,WEEK 2,14,TREATMENT,2013-08-29,15
CDISCPILOT01,QS,01-709-1339,6001,CIBIC,"EXTENT OF CHANGE, IF ANY, SINCE BASELINE",ADCS-CGIC,,NO CHANGE,,4,4,,,,,,8,WEEK 8,56,TREATMENT,2013-02-19,59
CDISCPILOT01,QS,01-709-1339,6002,CIBIC,"EXTENT OF CHANGE, IF ANY, SINCE BASELINE",ADCS-CGIC,,MINIMAL IMPROVEMENT,,3,3,,,,,,10,WEEK 16,112,TREATMENT,2013-04-14,113
CDISCPILOT01,QS,01-709-1339,6003,CIBIC,"EXTENT OF CHANGE, IF ANY, SINCE BASELINE",ADCS-CGIC,,NO CHANGE,,4,4,,,,,,12,WEEK 24,168,TREATMENT,2013-06-08,168
CDISCPILOT01,QS,01-709-1424,6001,CIBIC,"EXTENT OF CHANGE, IF ANY, SINCE BASELINE",ADCS-CGIC,,NO CHANGE,,4,4,,,,,,4,WEEK 2,14,TREATMENT,2013-03-08,6
CDISCPILOT01,QS,01-710-1002,6001,CIBIC,"EXTENT OF CHANGE, IF ANY, SINCE BASELINE",ADCS-CGIC,,MINIMAL WORSENING,,5,5,,,,,,4,WEEK 2,14,TREATMENT,2014-01-18,5
CDISCPILOT01,QS,01-710-1006,6001,CIBIC,"EXTENT OF CHANGE, IF ANY, SINCE BASELINE",ADCS-CGIC,,NO CHANGE,,4,4,,,,,,8,WEEK 8,56,TREATMENT,2013-04-06,56
CDISCPILOT01,QS,01-710-1006,6002,CIBIC,"EXTENT OF CHANGE, IF ANY, SINCE BASELINE",ADCS-CGIC,,MINIMAL IMPROVEMENT,,3,3,,,,,,10,WEEK 16,112,TREATMENT,2013-06-01,112
CDISCPILOT01,QS,01-710-1006,6003,CIBIC,"EXTENT OF CHANGE, IF ANY, SINCE BASELINE",ADCS-CGIC,,NO CHANGE,,4,4,,,,,,12,WEEK 24,168,TREATMENT,2013-07-27,168
CDISCPILOT01,QS,01-710-1027,6001,CIBIC,"EXTENT OF CHANGE, IF ANY, SINCE BASELINE",ADCS-CGIC,,NO CHANGE,,4,4,,,,,,8,WEEK 8,56,TREATMENT,2014-04-24,56
CDISCPILOT01,QS,01-710-1027,6002,CIBIC,"EXTENT OF CHANGE, IF ANY, SINCE BASELINE",ADCS-CGIC,,MINIMAL WORSENING,,5,5,,,,,,10,WEEK 16,112,TREATMENT,2014-06-20,113
CDISCPILOT01,QS,01-710-1027,6003,CIBIC,"EXTENT OF CHANGE, IF ANY, SINCE BASELINE",ADCS-CGIC,,MINIMAL WORSENING,,5,5,,,,,,12,WEEK 24,168,TREATMENT,2014-08-19,173
CDISCPILOT01,QS,01-710-1045,6001,CIBIC,"EXTENT OF CHANGE, IF ANY, SINCE BASELINE",ADCS-CGIC,,MINIMAL WORSENING,,5,5,,,,,,8,WEEK 8,56,TREATMENT,2013-07-29,57
CDISCPILOT01,QS,01-710-1045,6002,CIBIC,"EXTENT OF CHANGE, IF ANY, SINCE BASELINE",ADCS-CGIC,,MINIMAL WORSENING,,5,5,,,,,,9,WEEK 12,84,TREATMENT,2013-08-17,76
CDISCPILOT01,QS,01-710-1053,6001,CIBIC,"EXTENT OF CHANGE, IF ANY, SINCE BASELINE",ADCS-CGIC,,NO CHANGE,,4,4,,,,,,8,WEEK 8,56,TREATMENT,2013-02-15,52
CDISCPILOT01,QS,01-710-1060,6001,CIBIC,"EXTENT OF CHANGE, IF ANY, SINCE BASELINE",ADCS-CGIC,,NO CHANGE,,4,4,,,,,,8,WEEK 8,56,TREATMENT,2013-02-26,57
CDISCPILOT01,QS,01-710-1060,6002,CIBIC,"EXTENT OF CHANGE, IF ANY, SINCE BASELINE",ADCS-CGIC,,MINIMAL IMPROVEMENT,,3,3,,,,,,10,WEEK 16,112,TREATMENT,2013-04-23,113
CDISCPILOT01,QS,01-710-1060,6003,CIBIC,"EXTENT OF CHANGE, IF ANY, SINCE BASELINE",ADCS-CGIC,,NO CHANGE,,4,4,,,,,,12,WEEK 24,168,TREATMENT,2013-06-21,172
CDISCPILOT01,QS,01-710-1070,6001,CIBIC,"EXTENT OF CHANGE, IF ANY, SINCE BASELINE",ADCS-CGIC,,MINIMAL WORSENING,,5,5,,,,,,8,WEEK 8,56,TREATMENT,2012-11-05,59
CDISCPILOT01,QS,01-710-1070,6002,CIBIC,"EXTENT OF CHANGE, IF ANY, SINCE BASELINE",ADCS-CGIC,,NO CHANGE,,4,4,,,,,,10,WEEK 16,112,TREATMENT,2012-12-28,112
CDISCPILOT01,QS,01-710-1077,6001,CIBIC,"EXTENT OF CHANGE, IF ANY, SINCE BASELINE",ADCS-CGIC,,NO CHANGE,,4,4,,,,,,8,WEEK 8,56,TREATMENT,2014-01-12,57
CDISCPILOT01,QS,01-710-1077,6002,CIBIC,"EXTENT OF CHANGE, IF ANY, SINCE BASELINE",ADCS-CGIC,,NO CHANGE,,4,4,,,,,,10,WEEK 16,112,TREATMENT,2014-03-09,113
CDISCPILOT01,QS,01-710-1077,6003,CIBIC,"EXTENT OF CHANGE, IF ANY, SINCE BASELINE",ADCS-CGIC,,MINIMAL WORSENING,,5,5,,,,,,12,WEEK 24,168,TREATMENT,2014-05-03,168
CDISCPILOT01,QS,01-710-1078,6001,CIBIC,"EXTENT OF CHANGE, IF ANY, SINCE BASELINE",ADCS-CGIC,,MINIMAL WORSENING,,5,5,,,,,,8,WEEK 8,56,TREATMENT,2013-11-17,62
CDISCPILOT01,QS,01-710-1078,6002,CIBIC,"EXTENT OF CHANGE, IF ANY, SINCE BASELINE",ADCS-CGIC,,NO CHANGE,,4,4,,,,,,10,WEEK 16,112,TREATMENT,2014-01-12,118
CDISCPILOT01,QS,01-710-1078,6003,CIBIC,"EXTENT OF CHANGE, IF ANY, SINCE BASELINE",ADCS-CGIC,,NO CHANGE,,4,4,,,,,,12,WEEK 24,168,TREATMENT,2014-03-08,173
CDISCPILOT01,QS,01-710-1142,6001,CIBIC,"EXTENT OF CHANGE, IF ANY, SINCE BASELINE",ADCS-CGIC,,NO CHANGE,,4,4,,,,,,5,WEEK 4,28,TREATMENT,2012-10-23,22
CDISCPILOT01,QS,01-710-1154,6001,CIBIC,"EXTENT OF CHANGE, IF ANY, SINCE BASELINE",ADCS-CGIC,,NO CHANGE,,4,4,,,,,,7,WEEK 6,42,TREATMENT,2014-05-09,42
CDISCPILOT01,QS,01-710-1166,6001,CIBIC,"EXTENT OF CHANGE, IF ANY, SINCE BASELINE",ADCS-CGIC,,NO CHANGE,,4,4,,,,,,8,WEEK 8,56,TREATMENT,2013-01-25,57
CDISCPILOT01,QS,01-710-1183,6001,CIBIC,"EXTENT OF CHANGE, IF ANY, SINCE BASELINE",ADCS-CGIC,,MINIMAL IMPROVEMENT,,3,3,,,,,,8,WEEK 8,56,TREATMENT,2014-01-11,57
CDISCPILOT01,QS,01-710-1183,6002,CIBIC,"EXTENT OF CHANGE, IF ANY, SINCE BASELINE",ADCS-CGIC,,MINIMAL IMPROVEMENT,,3,3,,,,,,10,WEEK 16,112,TREATMENT,2014-03-10,115
CDISCPILOT01,QS,01-710-1183,6003,CIBIC,"EXTENT OF CHANGE, IF ANY, SINCE BASELINE",ADCS-CGIC,,NO CHANGE,,4,4,,,,,,12,WEEK 24,168,TREATMENT,2014-05-03,169
CDISCPILOT01,QS,01-710-1187,6001,CIBIC,"EXTENT OF CHANGE, IF ANY, SINCE BASELINE",ADCS-CGIC,,MINIMAL WORSENING,,5,5,,,,,,8,WEEK 8,56,TREATMENT,2013-01-06,58
CDISCPILOT01,QS,01-710-1187,6002,CIBIC,"EXTENT OF CHANGE, IF ANY, SINCE BASELINE",ADCS-CGIC,,NO CHANGE,,4,4,,,,,,10,WEEK 16,112,TREATMENT,2013-03-02,113
CDISCPILOT01,QS,01-710-1187,6003,CIBIC,"EXTENT OF CHANGE, IF ANY, SINCE BASELINE",ADCS-CGIC,,MODERATE WORSENING,,6,6,,,,,,12,WEEK 24,168,TREATMENT,2013-04-28,170
CDISCPILOT01,QS,01-710-1235,6001,CIBIC,"EXTENT OF CHANGE, IF ANY, SINCE BASELINE",ADCS-CGIC,,NO CHANGE,,4,4,,,,,,8,WEEK 8,56,TREATMENT,2012-11-21,57
CDISCPILOT01,QS,01-710-1235,6002,CIBIC,"EXTENT OF CHANGE, IF ANY, SINCE BASELINE",ADCS-CGIC,,MINIMAL IMPROVEMENT,,3,3,,,,,,10,WEEK 16,112,TREATMENT,2013-01-15,112
CDISCPILOT01,QS,01-710-1235,6003,CIBIC,"EXTENT OF CHANGE, IF ANY, SINCE BASELINE",ADCS-CGIC,,MINIMAL IMPROVEMENT,,3,3,,,,,,12,WEEK 24,168,TREATMENT,2013-03-13,169
CDISCPILOT01,QS,01-710-1249,6001,CIBIC,"EXTENT OF CHANGE, IF ANY, SINCE BASELINE",ADCS-CGIC,,NO CHANGE,,4,4,,,,,,8,WEEK 8,56,TREATMENT,2014-02-22,57
CDISCPILOT01,QS,01-710-1249,6002,CIBIC,"EXTENT OF CHANGE, IF ANY, SINCE BASELINE",ADCS-CGIC,,MINIMAL WORSENING,,5,5,,,,,,10,WEEK 16,112,TREATMENT,2014-04-19,113
CDISCPILOT01,QS,01-710-1249,6003,CIBIC,"EXTENT OF CHANGE, IF ANY, SINCE BASELINE",ADCS-CGIC,,MINIMAL WORSENING,,5,5,,,,,,12,WEEK 24,168,TREATMENT,2014-06-14,169
CDISCPILOT01,QS,01-710-1264,6001,CIBIC,"EXTENT OF CHANGE, IF ANY, SINCE BASELINE",ADCS-CGIC,,MINIMAL WORSENING,,5,5,,,,,,8,WEEK 8,56,TREATMENT,2013-08-08,57
CDISCPILOT01,QS,01-710-1264,6002,CIBIC,"EXTENT OF CHANGE, IF ANY, SINCE BASELINE",ADCS-CGIC,,NO CHANGE,,4,4,,,,,,10,WEEK 16,112,TREATMENT,2013-10-01,111
CDISCPILOT01,QS,01-710-1264,6003,CIBIC,"EXTENT OF CHANGE, IF ANY, SINCE BASELINE",ADCS-CGIC,,NO CHANGE,,4,4,,,,,,11,WEEK 20,140,TREATMENT,2013-10-12,122
CDISCPILOT01,QS,01-710-1270,6001,CIBIC,"EXTENT OF CHANGE, IF ANY, SINCE BASELINE",ADCS-CGIC,,NO CHANGE,,4,4,,,,,,4,WEEK 2,14,TREATMENT,2014-03-01,18
CDISCPILOT01,QS,01-710-1278,6001,CIBIC,"EXTENT OF CHANGE, IF ANY, SINCE BASELINE",ADCS-CGIC,,MINIMAL IMPROVEMENT,,3,3,,,,,,8,WEEK 8,56,TREATMENT,2013-02-21,60
CDISCPILOT01,QS,01-710-1278,6002,CIBIC,"EXTENT OF CHANGE, IF ANY, SINCE BASELINE",ADCS-CGIC,,MINIMAL IMPROVEMENT,,3,3,,,,,,9,WEEK 12,84,TREATMENT,2013-03-03,70
CDISCPILOT01,QS,01-710-1300,6001,CIBIC,"EXTENT OF CHANGE, IF ANY, SINCE BASELINE",ADCS-CGIC,,NO CHANGE,,4,4,,,,,,8,WEEK 8,56,TREATMENT,2013-02-11,59
CDISCPILOT01,QS,01-710-1300,6002,CIBIC,"EXTENT OF CHANGE, IF ANY, SINCE BASELINE",ADCS-CGIC,,NO CHANGE,,4,4,,,,,,9,WEEK 12,84,TREATMENT,2013-02-19,67
CDISCPILOT01,QS,01-710-1315,6001,CIBIC,"EXTENT OF CHANGE, IF ANY, SINCE BASELINE",ADCS-CGIC,,NO CHANGE,,4,4,,,,,,8,WEEK 8,56,TREATMENT,2013-04-23,56
CDISCPILOT01,QS,01-710-1315,6002,CIBIC,"EXTENT OF CHANGE, IF ANY, SINCE BASELINE",ADCS-CGIC,,NO CHANGE,,4,4,,,,,,10,WEEK 16,112,TREATMENT,2013-06-18,112
CDISCPILOT01,QS,01-710-1315,6003,CIBIC,"EXTENT OF CHANGE, IF ANY, SINCE BASELINE",ADCS-CGIC,,NO CHANGE,,4,4,,,,,,11,WEEK 20,140,TREATMENT,2013-07-16,140
CDISCPILOT01,QS,01-710-1354,6001,CIBIC,"EXTENT OF CHANGE, IF ANY, SINCE BASELINE",ADCS-CGIC,,MINIMAL WORSENING,,5,5,,,,,,8,WEEK 8,56,TREATMENT,2013-01-06,57
CDISCPILOT01,QS,01-710-1354,6002,CIBIC,"EXTENT OF CHANGE, IF ANY, SINCE BASELINE",ADCS-CGIC,,MINIMAL WORSENING,,5,5,,,,,,10,WEEK 16,112,TREATMENT,2013-03-02,112
CDISCPILOT01,QS,01-710-1354,6003,CIBIC,"EXTENT OF CHANGE, IF ANY, SINCE BASELINE",ADCS-CGIC,,MINIMAL WORSENING,,5,5,,,,,,12,WEEK 24,168,TREATMENT,2013-04-21,162
CDISCPILOT01,QS,01-710-1358,6001,CIBIC,"EXTENT OF CHANGE, IF ANY, SINCE BASELINE",ADCS-CGIC,,NO CHANGE,,4,4,,,,,,8,WEEK 8,56,TREATMENT,2012-11-14,59
CDISCPILOT01,QS,01-710-1358,6002,CIBIC,"EXTENT OF CHANGE, IF ANY, SINCE BASELINE",ADCS-CGIC,,MINIMAL WORSENING,,5,5,,,,,,10,WEEK 16,112,TREATMENT,2013-01-09,115
CDISCPILOT01,QS,01-710-1368,6001,CIBIC,"EXTENT OF CHANGE, IF ANY, SINCE BASELINE",ADCS-CGIC,,NO CHANGE,,4,4,,,,,,8,WEEK 8,56,TREATMENT,2013-12-19,58
CDISCPILOT01,QS,01-710-1368,6002,CIBIC,"EXTENT OF CHANGE, IF ANY, SINCE BASELINE",ADCS-CGIC,,MINIMAL WORSENING,,5,5,,,,,,10,WEEK 16,112,TREATMENT,2014-02-12,113
CDISCPILOT01,QS,01-710-1368,6003,CIBIC,"EXTENT OF CHANGE, IF ANY, SINCE BASELINE",ADCS-CGIC,,MINIMAL WORSENING,,5,5,,,,,,12,WEEK 24,168,TREATMENT,2014-04-09,169
CDISCPILOT01,QS,01-710-1385,6001,CIBIC,"EXTENT OF CHANGE, IF ANY, SINCE BASELINE",ADCS-CGIC,,MINIMAL IMPROVEMENT,,3,3,,,,,,8,WEEK 8,56,TREATMENT,2012-12-25,58
CDISCPILOT01,QS,01-710-1385,6002,CIBIC,"EXTENT OF CHANGE, IF ANY, SINCE BASELINE",ADCS-CGIC,,MODERATE IMPROVEMENT,,2,2,,,,,,10,WEEK 16,112,TREATMENT,2013-02-18,113
CDISCPILOT01,QS,01-710-1408,6001,CIBIC,"EXTENT OF CHANGE, IF ANY, SINCE BASELINE",ADCS-CGIC,,NO CHANGE,,4,4,,,,,,8,WEEK 8,56,TREATMENT,2013-03-07,62
CDISCPILOT01,QS,01-710-1408,6002,CIBIC,"EXTENT OF CHANGE, IF ANY, SINCE BASELINE",ADCS-CGIC,,NO CHANGE,,4,4,,,,,,10,WEEK 16,112,TREATMENT,2013-05-03,119
CDISCPILOT01,QS,01-710-1408,6003,CIBIC,"EXTENT OF CHANGE, IF ANY, SINCE BASELINE",ADCS-CGIC,,NO CHANGE,,4,4,,,,,,12,WEEK 24,168,TREATMENT,2013-06-28,175
CDISCPILOT01,QS,01-711-1012,6001,CIBIC,"EXTENT OF CHANGE, IF ANY, SINCE BASELINE",ADCS-CGIC,,NO CHANGE,,4,4,,,,,,5,WEEK 4,28,TREATMENT,2013-05-02,30
CDISCPILOT01,QS,01-711-1012,6002,CIBIC,"EXTENT OF CHANGE, IF ANY, SINCE BASELINE",ADCS-CGIC,,MINIMAL WORSENING,,5,5,,,,,,201,RETRIEVAL,168,TREATMENT,2013-09-18,169
CDISCPILOT01,QS,01-711-1036,6001,CIBIC,"EXTENT OF CHANGE, IF ANY, SINCE BASELINE",ADCS-CGIC,,NO CHANGE,,4,4,,,,,,8,WEEK 8,56,TREATMENT,2012-09-23,57
CDISCPILOT01,QS,01-711-1036,6002,CIBIC,"EXTENT OF CHANGE, IF ANY, SINCE BASELINE",ADCS-CGIC,,MINIMAL WORSENING,,5,5,,,,,,10,WEEK 16,112,TREATMENT,2012-11-17,112
CDISCPILOT01,QS,01-711-1036,6003,CIBIC,"EXTENT OF CHANGE, IF ANY, SINCE BASELINE",ADCS-CGIC,,MINIMAL WORSENING,,5,5,,,,,,12,WEEK 24,168,TREATMENT,2013-01-13,169
CDISCPILOT01,QS,01-711-1143,6001,CIBIC,"EXTENT OF CHANGE, IF ANY, SINCE BASELINE",ADCS-CGIC,,MINIMAL IMPROVEMENT,,3,3,,,,,,8,WEEK 8,56,TREATMENT,2013-05-28,56
CDISCPILOT01,QS,01-711-1143,6002,CIBIC,"EXTENT OF CHANGE, IF ANY, SINCE BASELINE",ADCS-CGIC,,MINIMAL IMPROVEMENT,,3,3,,,,,,9,WEEK 12,84,TREATMENT,2013-06-01,60
CDISCPILOT01,QS,01-711-1143,6003,CIBIC,"EXTENT OF CHANGE, IF ANY, SINCE BASELINE",ADCS-CGIC,,NO CHANGE,,4,4,,,,,,201,RETRIEVAL,168,TREATMENT,2013-09-22,173
CDISCPILOT01,QS,01-713-1043,6001,CIBIC,"EXTENT OF CHANGE, IF ANY, SINCE BASELINE",ADCS-CGIC,,NO CHANGE,,4,4,,,,,,8,WEEK 8,56,TREATMENT,2013-11-11,58
CDISCPILOT01,QS,01-713-1043,6002,CIBIC,"EXTENT OF CHANGE, IF ANY, SINCE BASELINE",ADCS-CGIC,,NO CHANGE,,4,4,,,,,,10,WEEK 16,112,TREATMENT,2014-01-03,111
CDISCPILOT01,QS,01-713-1043,6003,CIBIC,"EXTENT OF CHANGE, IF ANY, SINCE BASELINE",ADCS-CGIC,,NO CHANGE,,4,4,,,,,,12,WEEK 24,168,TREATMENT,2014-02-28,167
CDISCPILOT01,QS,01-713-1073,6001,CIBIC,"EXTENT OF CHANGE, IF ANY, SINCE BASELINE",ADCS-CGIC,,MINIMAL IMPROVEMENT,,3,3,,,,,,8,WEEK 8,56,TREATMENT,2014-05-25,57
CDISCPILOT01,QS,01-713-1073,6002,CIBIC,"EXTENT OF CHANGE, IF ANY, SINCE BASELINE",ADCS-CGIC,,NO CHANGE,,4,4,,,,,,10,WEEK 16,112,TREATMENT,2014-07-21,114
CDISCPILOT01,QS,01-713-1073,6003,CIBIC,"EXTENT OF CHANGE, IF ANY, SINCE BASELINE",ADCS-CGIC,,MINIMAL WORSENING,,5,5,,,,,,12,WEEK 24,168,TREATMENT,2014-09-21,176
CDISCPILOT01,QS,01-713-1106,6001,CIBIC,"EXTENT OF CHANGE, IF ANY, SINCE BASELINE",ADCS-CGIC,,MINIMAL IMPROVEMENT,,3,3,,,,,,8,WEEK 8,56,TREATMENT,2012-12-27,58
CDISCPILOT01,QS,01-713-1106,6002,CIBIC,"EXTENT OF CHANGE, IF ANY, SINCE BASELINE",ADCS-CGIC,,MINIMAL IMPROVEMENT,,3,3,,,,,,10,WEEK 16,112,TREATMENT,2013-02-27,120
CDISCPILOT01,QS,01-713-1106,6003,CIBIC,"EXTENT OF CHANGE, IF ANY, SINCE BASELINE",ADCS-CGIC,,MINIMAL IMPROVEMENT,,3,3,,,,,,12,WEEK 24,168,TREATMENT,2013-04-22,174
CDISCPILOT01,QS,01-713-1179,6001,CIBIC,"EXTENT OF CHANGE, IF ANY, SINCE BASELINE",ADCS-CGIC,,NO CHANGE,,4,4,,,,,,8,WEEK 8,56,TREATMENT,2013-10-04,57
CDISCPILOT01,QS,01-713-1179,6002,CIBIC,"EXTENT OF CHANGE, IF ANY, SINCE BASELINE",ADCS-CGIC,,MINIMAL WORSENING,,5,5,,,,,,10,WEEK 16,112,TREATMENT,2013-11-26,110
CDISCPILOT01,QS,01-713-1179,6003,CIBIC,"EXTENT OF CHANGE, IF ANY, SINCE BASELINE",ADCS-CGIC,,MODERATE IMPROVEMENT,,2,2,,,,,,12,WEEK 24,168,TREATMENT,2014-01-24,169
CDISCPILOT01,QS,01-713-1209,6001,CIBIC,"EXTENT OF CHANGE, IF ANY, SINCE BASELINE",ADCS-CGIC,,MINIMAL WORSENING,,5,5,,,,,,8,WEEK 8,56,TREATMENT,2013-07-22,57
CDISCPILOT01,QS,01-713-1209,6002,CIBIC,"EXTENT OF CHANGE, IF ANY, SINCE BASELINE",ADCS-CGIC,,MINIMAL WORSENING,,5,5,,,,,,10,WEEK 16,112,TREATMENT,2013-09-15,112
CDISCPILOT01,QS,01-713-1209,6003,CIBIC,"EXTENT OF CHANGE, IF ANY, SINCE BASELINE",ADCS-CGIC,,MINIMAL WORSENING,,5,5,,,,,,12,WEEK 24,168,TREATMENT,2013-11-14,172
CDISCPILOT01,QS,01-713-1256,6001,CIBIC,"EXTENT OF CHANGE, IF ANY, SINCE BASELINE",ADCS-CGIC,,NO CHANGE,,4,4,,,,,,8,WEEK 8,56,TREATMENT,2012-11-14,57
CDISCPILOT01,QS,01-713-1256,6002,CIBIC,"EXTENT OF CHANGE, IF ANY, SINCE BASELINE",ADCS-CGIC,,MINIMAL WORSENING,,5,5,,,,,,10,WEEK 16,112,TREATMENT,2013-01-08,112
CDISCPILOT01,QS,01-713-1256,6003,CIBIC,"EXTENT OF CHANGE, IF ANY, SINCE BASELINE",ADCS-CGIC,,MODERATE WORSENING,,6,6,,,,,,12,WEEK 24,168,TREATMENT,2013-03-09,172
CDISCPILOT01,QS,01-713-1269,6001,CIBIC,"EXTENT OF CHANGE, IF ANY, SINCE BASELINE",ADCS-CGIC,,NO CHANGE,,4,4,,,,,,8,WEEK 8,56,TREATMENT,2014-03-23,56
CDISCPILOT01,QS,01-713-1269,6002,CIBIC,"EXTENT OF CHANGE, IF ANY, SINCE BASELINE",ADCS-CGIC,,MINIMAL WORSENING,,5,5,,,,,,10,WEEK 16,112,TREATMENT,2014-05-19,113
CDISCPILOT01,QS,01-713-1269,6003,CIBIC,"EXTENT OF CHANGE, IF ANY, SINCE BASELINE",ADCS-CGIC,,MINIMAL WORSENING,,5,5,,,,,,12,WEEK 24,168,TREATMENT,2014-07-13,168
CDISCPILOT01,QS,01-713-1448,6001,CIBIC,"EXTENT OF CHANGE, IF ANY, SINCE BASELINE",ADCS-CGIC,,NO CHANGE,,4,4,,,,,,8,WEEK 8,56,TREATMENT,2014-03-17,58
CDISCPILOT01,QS,01-713-1448,6002,CIBIC,"EXTENT OF CHANGE, IF ANY, SINCE BASELINE",ADCS-CGIC,,MINIMAL WORSENING,,5,5,,,,,,10,WEEK 16,112,TREATMENT,2014-05-17,119
CDISCPILOT01,QS,01-714-1035,6001,CIBIC,"EXTENT OF CHANGE, IF ANY, SINCE BASELINE",ADCS-CGIC,,NO CHANGE,,4,4,,,,,,8,WEEK 8,56,TREATMENT,2014-06-17,62
CDISCPILOT01,QS,01-714-1035,6002,CIBIC,"EXTENT OF CHANGE, IF ANY, SINCE BASELINE",ADCS-CGIC,,NO CHANGE,,4,4,,,,,,10,WEEK 16,112,TREATMENT,2014-08-06,112
CDISCPILOT01,QS,01-714-1035,6003,CIBIC,"EXTENT OF CHANGE, IF ANY, SINCE BASELINE",ADCS-CGIC,,NO CHANGE,,4,4,,,,,,12,WEEK 24,168,TREATMENT,2014-10-02,169
CDISCPILOT01,QS,01-714-1068,6001,CIBIC,"EXTENT OF CHANGE, IF ANY, SINCE BASELINE",ADCS-CGIC,,NO CHANGE,,4,4,,,,,,8,WEEK 8,56,TREATMENT,2013-10-03,57
CDISCPILOT01,QS,01-714-1068,6002,CIBIC,"EXTENT OF CHANGE, IF ANY, SINCE BASELINE",ADCS-CGIC,,NO CHANGE,,4,4,,,,,,9,WEEK 12,84,TREATMENT,2013-10-16,70
CDISCPILOT01,QS,01-714-1195,6001,CIBIC,"EXTENT OF CHANGE, IF ANY, SINCE BASELINE",ADCS-CGIC,,MINIMAL IMPROVEMENT,,3,3,,,,,,8,WEEK 8,56,TREATMENT,2013-06-20,56
CDISCPILOT01,QS,01-714-1195,6002,CIBIC,"EXTENT OF CHANGE, IF ANY, SINCE BASELINE",ADCS-CGIC,,MODERATE IMPROVEMENT,,2,2,,,,,,10,WEEK 16,112,TREATMENT,2013-08-09,106
CDISCPILOT01,QS,01-714-1195,6003,CIBIC,"EXTENT OF CHANGE, IF ANY, SINCE BASELINE",ADCS-CGIC,,MINIMAL IMPROVEMENT,,3,3,,,,,,12,WEEK 24,168,TREATMENT,2013-10-10,168
CDISCPILOT01,QS,01-714-1288,6001,CIBIC,"EXTENT OF CHANGE, IF ANY, SINCE BASELINE",ADCS-CGIC,,MINIMAL IMPROVEMENT,,3,3,,,,,,8,WEEK 8,56,TREATMENT,2014-02-02,61
CDISCPILOT01,QS,01-714-1288,6002,CIBIC,"EXTENT OF CHANGE, IF ANY, SINCE BASELINE",ADCS-CGIC,,NO CHANGE,,4,4,,,,,,10,WEEK 16,112,TREATMENT,2014-04-01,119
CDISCPILOT01,QS,01-714-1288,6003,CIBIC,"EXTENT OF CHANGE, IF ANY, SINCE BASELINE",ADCS-CGIC,,MINIMAL IMPROVEMENT,,3,3,,,,,,12,WEEK 24,168,TREATMENT,2014-05-27,175
CDISCPILOT01,QS,01-714-1375,6001,CIBIC,"EXTENT OF CHANGE, IF ANY, SINCE BASELINE",ADCS-CGIC,,NO CHANGE,,4,4,,,,,,8,WEEK 8,56,TREATMENT,2013-04-26,60
CDISCPILOT01,QS,01-714-1375,6002,CIBIC,"EXTENT OF CHANGE, IF ANY, SINCE BASELINE",ADCS-CGIC,,NO CHANGE,,4,4,,,,,,10,WEEK 16,112,TREATMENT,2013-06-22,117
CDISCPILOT01,QS,01-714-1375,6003,CIBIC,"EXTENT OF CHANGE, IF ANY, SINCE BASELINE",ADCS-CGIC,,MINIMAL IMPROVEMENT,,3,3,,,,,,12,WEEK 24,168,TREATMENT,2013-08-23,179
CDISCPILOT01,QS,01-714-1425,6001,CIBIC,"EXTENT OF CHANGE, IF ANY, SINCE BASELINE",ADCS-CGIC,,NO CHANGE,,4,4,,,,,,4,WEEK 2,14,TREATMENT,2013-08-22,8
CDISCPILOT01,QS,01-715-1085,6001,CIBIC,"EXTENT OF CHANGE, IF ANY, SINCE BASELINE",ADCS-CGIC,,NO CHANGE,,4,4,,,,,,8,WEEK 8,56,TREATMENT,2013-04-14,58
CDISCPILOT01,QS,01-715-1085,6002,CIBIC,"EXTENT OF CHANGE, IF ANY, SINCE BASELINE",ADCS-CGIC,,NO CHANGE,,4,4,,,,,,10,WEEK 16,112,TREATMENT,2013-06-09,114
CDISCPILOT01,QS,01-715-1085,6003,CIBIC,"EXTENT OF CHANGE, IF ANY, SINCE BASELINE",ADCS-CGIC,,NO CHANGE,,4,4,,,,,,12,WEEK 24,168,TREATMENT,2013-08-04,170
CDISCPILOT01,QS,01-715-1107,6001,CIBIC,"EXTENT OF CHANGE, IF ANY, SINCE BASELINE",ADCS-CGIC,,NO CHANGE,,4,4,,,,,,8,WEEK 8,56,TREATMENT,2013-04-23,57
CDISCPILOT01,QS,01-715-1107,6002,CIBIC,"EXTENT OF CHANGE, IF ANY, SINCE BASELINE",ADCS-CGIC,,NO CHANGE,,4,4,,,,,,9,WEEK 12,84,TREATMENT,2013-05-13,77
CDISCPILOT01,QS,01-715-1107,6003,CIBIC,"EXTENT OF CHANGE, IF ANY, SINCE BASELINE",ADCS-CGIC,,MINIMAL WORSENING,,5,5,,,,,,201,RETRIEVAL,168,TREATMENT,2013-08-14,170
CDISCPILOT01,QS,01-715-1207,6001,CIBIC,"EXTENT OF CHANGE, IF ANY, SINCE BASELINE",ADCS-CGIC,,MINIMAL IMPROVEMENT,,3,3,,,,,,8,WEEK 8,56,TREATMENT,2013-01-13,57
CDISCPILOT01,QS,01-715-1207,6002,CIBIC,"EXTENT OF CHANGE, IF ANY, SINCE BASELINE",ADCS-CGIC,,NO CHANGE,,4,4,,,,,,10,WEEK 16,112,TREATMENT,2013-03-10,113
CDISCPILOT01,QS,01-715-1207,6003,CIBIC,"EXTENT OF CHANGE, IF ANY, SINCE BASELINE",ADCS-CGIC,,NO CHANGE,,4,4,,,,,,12,WEEK 24,168,TREATMENT,2013-05-05,169
CDISCPILOT01,QS,01-715-1319,6001,CIBIC,"EXTENT OF CHANGE, IF ANY, SINCE BASELINE",ADCS-CGIC,,MINIMAL WORSENING,,5,5,,,,,,5,WEEK 4,28,TREATMENT,2013-03-18,30
CDISCPILOT01,QS,01-715-1321,6001,CIBIC,"EXTENT OF CHANGE, IF ANY, SINCE BASELINE",ADCS-CGIC,,MINIMAL IMPROVEMENT,,3,3,,,,,,8,WEEK 8,56,TREATMENT,2014-04-09,58
CDISCPILOT01,QS,01-715-1321,6002,CIBIC,"EXTENT OF CHANGE, IF ANY, SINCE BASELINE",ADCS-CGIC,,MINIMAL WORSENING,,5,5,,,,,,9,WEEK 12,84,TREATMENT,2014-04-22,71
CDISCPILOT01,QS,01-715-1397,6001,CIBIC,"EXTENT OF CHANGE, IF ANY, SINCE BASELINE",ADCS-CGIC,,NO CHANGE,,4,4,,,,,,8,WEEK 8,56,TREATMENT,2013-05-29,57
CDISCPILOT01,QS,01-715-1397,6002,CIBIC,"EXTENT OF CHANGE, IF ANY, SINCE BASELINE",ADCS-CGIC,,NO CHANGE,,4,4,,,,,,10,WEEK 16,112,TREATMENT,2013-07-24,113
CDISCPILOT01,QS,01-715-1397,6003,CIBIC,"EXTENT OF CHANGE, IF ANY, SINCE BASELINE",ADCS-CGIC,,NO CHANGE,,4,4,,,,,,12,WEEK 24,168,TREATMENT,2013-09-18,169
CDISCPILOT01,QS,01-715-1405,6001,CIBIC,"EXTENT OF CHANGE, IF ANY, SINCE BASELINE",ADCS-CGIC,,NO CHANGE,,4,4,,,,,,4,WEEK 2,14,TREATMENT,2013-07-13,8
CDISCPILOT01,QS,01-715-1405,6002,CIBIC,"EXTENT OF CHANGE, IF ANY, SINCE BASELINE",ADCS-CGIC,,MINIMAL WORSENING,,5,5,,,,,,201,RETRIEVAL,168,TREATMENT,2014-01-11,190
CDISCPILOT01,QS,01-716-1024,6001,CIBIC,"EXTENT OF CHANGE, IF ANY, SINCE BASELINE",ADCS-CGIC,,NO CHANGE,,4,4,,,,,,8,WEEK 8,56,TREATMENT,2012-09-03,57
CDISCPILOT01,QS,01-716-1024,6002,CIBIC,"EXTENT OF CHANGE, IF ANY, SINCE BASELINE",ADCS-CGIC,,NO CHANGE,,4,4,,,,,,10,WEEK 16,112,TREATMENT,2012-11-01,116
CDISCPILOT01,QS,01-716-1024,6003,CIBIC,"EXTENT OF CHANGE, IF ANY, SINCE BASELINE",ADCS-CGIC,,NO CHANGE,,4,4,,,,,,12,WEEK 24,168,TREATMENT,2012-12-30,175
CDISCPILOT01,QS,01-716-1026,6001,CIBIC,"EXTENT OF CHANGE, IF ANY, SINCE BASELINE",ADCS-CGIC,,MINIMAL IMPROVEMENT,,3,3,,,,,,8,WEEK 8,56,TREATMENT,2014-05-29,58
CDISCPILOT01,QS,01-716-1026,6002,CIBIC,"EXTENT OF CHANGE, IF ANY, SINCE BASELINE",ADCS-CGIC,,MINIMAL WORSENING,,5,5,,,,,,10,WEEK 16,112,TREATMENT,2014-07-31,121
CDISCPILOT01,QS,01-716-1026,6003,CIBIC,"EXTENT OF CHANGE, IF ANY, SINCE BASELINE",ADCS-CGIC,,NO CHANGE,,4,4,,,,,,12,WEEK 24,168,TREATMENT,2014-09-27,179
CDISCPILOT01,QS,01-716-1030,6001,CIBIC,"EXTENT OF CHANGE, IF ANY, SINCE BASELINE",ADCS-CGIC,,NO CHANGE,,4,4,,,,,,4,WEEK 2,14,TREATMENT,2014-01-10,14
CDISCPILOT01,QS,01-716-1044,6001,CIBIC,"EXTENT OF CHANGE, IF ANY, SINCE BASELINE",ADCS-CGIC,,MODERATE IMPROVEMENT,,2,2,,,,,,8,WEEK 8,56,TREATMENT,2013-06-28,63
CDISCPILOT01,QS,01-716-1044,6002,CIBIC,"EXTENT OF CHANGE, IF ANY, SINCE BASELINE",ADCS-CGIC,,MINIMAL IMPROVEMENT,,3,3,,,,,,10,WEEK 16,112,TREATMENT,2013-08-16,112
CDISCPILOT01,QS,01-716-1044,6003,CIBIC,"EXTENT OF CHANGE, IF ANY, SINCE BASELINE",ADCS-CGIC,,MINIMAL WORSENING,,5,5,,,,,,12,WEEK 24,168,TREATMENT,2013-10-16,173
CDISCPILOT01,QS,01-716-1063,6001,CIBIC,"EXTENT OF CHANGE, IF ANY, SINCE BASELINE",ADCS-CGIC,,MINIMAL WORSENING,,5,5,,,,,,8,WEEK 8,56,TREATMENT,2013-07-04,57
CDISCPILOT01,QS,01-716-1063,6002,CIBIC,"EXTENT OF CHANGE, IF ANY, SINCE BASELINE",ADCS-CGIC,,NO CHANGE,,4,4,,,,,,10,WEEK 16,112,TREATMENT,2013-08-28,112
CDISCPILOT01,QS,01-716-1063,6003,CIBIC,"EXTENT OF CHANGE, IF ANY, SINCE BASELINE",ADCS-CGIC,,MODERATE WORSENING,,6,6,,,,,,201,RETRIEVAL,168,TREATMENT,2013-11-17,193
CDISCPILOT01,QS,01-716-1071,6001,CIBIC,"EXTENT OF CHANGE, IF ANY, SINCE BASELINE",ADCS-CGIC,,NO CHANGE,,4,4,,,,,,8,WEEK 8,56,TREATMENT,2013-08-01,55
CDISCPILOT01,QS,01-716-1071,6002,CIBIC,"EXTENT OF CHANGE, IF ANY, SINCE BASELINE",ADCS-CGIC,,NO CHANGE,,4,4,,,,,,201,RETRIEVAL,168,TREATMENT,2013-12-16,192
CDISCPILOT01,QS,01-716-1094,6001,CIBIC,"EXTENT OF CHANGE, IF ANY, SINCE BASELINE",ADCS-CGIC,,MODERATE IMPROVEMENT,,2,2,,,,,,7,WEEK 6,42,TREATMENT,2013-01-26,39
CDISCPILOT01,QS,01-716-1094,6002,CIBIC,"EXTENT OF CHANGE, IF ANY, SINCE BASELINE",ADCS-CGIC,,NO CHANGE,,4,4,,,,,,201,RETRIEVAL,168,TREATMENT,2013-06-22,186
CDISCPILOT01,QS,01-716-1103,6001,CIBIC,"EXTENT OF CHANGE, IF ANY, SINCE BASELINE",ADCS-CGIC,,MINIMAL IMPROVEMENT,,3,3,,,,,,8,WEEK 8,56,TREATMENT,2014-05-22,64
CDISCPILOT01,QS,01-716-1103,6002,CIBIC,"EXTENT OF CHANGE, IF ANY, SINCE BASELINE",ADCS-CGIC,,MINIMAL IMPROVEMENT,,3,3,,,,,,10,WEEK 16,112,TREATMENT,2014-07-23,126
CDISCPILOT01,QS,01-716-1103,6003,CIBIC,"EXTENT OF CHANGE, IF ANY, SINCE BASELINE",ADCS-CGIC,,MINIMAL IMPROVEMENT,,3,3,,,,,,12,WEEK 24,168,TREATMENT,2014-08-30,164
CDISCPILOT01,QS,01-716-1108,6001,CIBIC,"EXTENT OF CHANGE, IF ANY, SINCE BASELINE",ADCS-CGIC,,NO CHANGE,,4,4,,,,,,8,WEEK 8,56,TREATMENT,2013-04-12,60
CDISCPILOT01,QS,01-716-1108,6002,CIBIC,"EXTENT OF CHANGE, IF ANY, SINCE BASELINE",ADCS-CGIC,,NO CHANGE,,4,4,,,,,,10,WEEK 16,112,TREATMENT,2013-06-07,116
CDISCPILOT01,QS,01-716-1108,6003,CIBIC,"EXTENT OF CHANGE, IF ANY, SINCE BASELINE",ADCS-CGIC,,NO CHANGE,,4,4,,,,,,12,WEEK 24,168,TREATMENT,2013-08-02,172
CDISCPILOT01,QS,01-716-1151,6001,CIBIC,"EXTENT OF CHANGE, IF ANY, SINCE BASELINE",ADCS-CGIC,,NO CHANGE,,4,4,,,,,,8,WEEK 8,56,TREATMENT,2013-04-02,61
CDISCPILOT01,QS,01-716-1151,6002,CIBIC,"EXTENT OF CHANGE, IF ANY, SINCE BASELINE",ADCS-CGIC,,MINIMAL IMPROVEMENT,,3,3,,,,,,10,WEEK 16,112,TREATMENT,2013-06-07,127
CDISCPILOT01,QS,01-716-1151,6003,CIBIC,"EXTENT OF CHANGE, IF ANY, SINCE BASELINE",ADCS-CGIC,,MINIMAL WORSENING,,5,5,,,,,,201,RETRIEVAL,168,TREATMENT,2013-08-13,194
CDISCPILOT01,QS,01-716-1157,6001,CIBIC,"EXTENT OF CHANGE, IF ANY, SINCE BASELINE",ADCS-CGIC,,MINIMAL IMPROVEMENT,,3,3,,,,,,8,WEEK 8,56,TREATMENT,2013-11-26,56
CDISCPILOT01,QS,01-716-1157,6002,CIBIC,"EXTENT OF CHANGE, IF ANY, SINCE BASELINE",ADCS-CGIC,,MINIMAL WORSENING,,5,5,,,,,,10,WEEK 16,112,TREATMENT,2014-01-20,111
CDISCPILOT01,QS,01-716-1157,6003,CIBIC,"EXTENT OF CHANGE, IF ANY, SINCE BASELINE",ADCS-CGIC,,MINIMAL WORSENING,,5,5,,,,,,12,WEEK 24,168,TREATMENT,2014-03-26,176
CDISCPILOT01,QS,01-716-1160,6001,CIBIC,"EXTENT OF CHANGE, IF ANY, SINCE BASELINE",ADCS-CGIC,,NO CHANGE,,4,4,,,,,,8,WEEK 8,56,TREATMENT,2013-06-12,69
CDISCPILOT01,QS,01-716-1160,6002,CIBIC,"EXTENT OF CHANGE, IF ANY, SINCE BASELINE",ADCS-CGIC,,NO CHANGE,,4,4,,,,,,10,WEEK 16,112,TREATMENT,2013-07-27,114
CDISCPILOT01,QS,01-716-1160,6003,CIBIC,"EXTENT OF CHANGE, IF ANY, SINCE BASELINE",ADCS-CGIC,,NO CHANGE,,4,4,,,,,,12,WEEK 24,168,TREATMENT,2013-09-27,176
CDISCPILOT01,QS,01-716-1167,6001,CIBIC,"EXTENT OF CHANGE, IF ANY, SINCE BASELINE",ADCS-CGIC,,MINIMAL IMPROVEMENT,,3,3,,,,,,8,WEEK 8,56,TREATMENT,2012-12-03,57
CDISCPILOT01,QS,01-716-1167,6002,CIBIC,"EXTENT OF CHANGE, IF ANY, SINCE BASELINE",ADCS-CGIC,,MINIMAL WORSENING,,5,5,,,,,,10,WEEK 16,112,TREATMENT,2013-01-28,113
CDISCPILOT01,QS,01-716-1167,6003,CIBIC,"EXTENT OF CHANGE, IF ANY, SINCE BASELINE",ADCS-CGIC,,MINIMAL IMPROVEMENT,,3,3,,,,,,12,WEEK 24,168,TREATMENT,2013-03-24,168
CDISCPILOT01,QS,01-716-1177,6001,CIBIC,"EXTENT OF CHANGE, IF ANY, SINCE BASELINE",ADCS-CGIC,,NO CHANGE,,4,4,,,,,,8,WEEK 8,56,TREATMENT,2014-10-30,59
CDISCPILOT01,QS,01-716-1177,6002,CIBIC,"EXTENT OF CHANGE, IF ANY, SINCE BASELINE",ADCS-CGIC,,MINIMAL WORSENING,,5,5,,,,,,10,WEEK 16,112,TREATMENT,2015-01-01,122
CDISCPILOT01,QS,01-716-1177,6003,CIBIC,"EXTENT OF CHANGE, IF ANY, SINCE BASELINE",ADCS-CGIC,,NO CHANGE,,4,4,,,,,,12,WEEK 24,168,TREATMENT,2015-02-17,169
CDISCPILOT01,QS,01-716-1189,6001,CIBIC,"EXTENT OF CHANGE, IF ANY, SINCE BASELINE",ADCS-CGIC,,MODERATE WORSENING,,6,6,,,,,,8,WEEK 8,56,TREATMENT,2012-12-08,61
CDISCPILOT01,QS,01-716-1189,6002,CIBIC,"EXTENT OF CHANGE, IF ANY, SINCE BASELINE",ADCS-CGIC,,MINIMAL WORSENING,,5,5,,,,,,10,WEEK 16,112,TREATMENT,2013-02-03,118
CDISCPILOT01,QS,01-716-1189,6003,CIBIC,"EXTENT OF CHANGE, IF ANY, SINCE BASELINE",ADCS-CGIC,,MINIMAL WORSENING,,5,5,,,,,,11,WEEK 20,140,TREATMENT,2013-03-03,146
CDISCPILOT01,QS,01-716-1189,6004,CIBIC,"EXTENT OF CHANGE, IF ANY, SINCE BASELINE",ADCS-CGIC,,MODERATE WORSENING,,6,6,,,,,,201,RETRIEVAL,168,TREATMENT,2013-04-08,182
CDISCPILOT01,QS,01-716-1229,6001,CIBIC,"EXTENT OF CHANGE, IF ANY, SINCE BASELINE",ADCS-CGIC,,NO CHANGE,,4,4,,,,,,7,WEEK 6,42,TREATMENT,2013-04-02,42
CDISCPILOT01,QS,01-716-1298,6001,CIBIC,"EXTENT OF CHANGE, IF ANY, SINCE BASELINE",ADCS-CGIC,,NO CHANGE,,4,4,,,,,,8,WEEK 8,56,TREATMENT,2013-06-07,61
CDISCPILOT01,QS,01-716-1298,6002,CIBIC,"EXTENT OF CHANGE, IF ANY, SINCE BASELINE",ADCS-CGIC,,NO CHANGE,,4,4,,,,,,9,WEEK 12,84,TREATMENT,2013-07-06,90
CDISCPILOT01,QS,01-716-1298,6003,CIBIC,"EXTENT OF CHANGE, IF ANY, SINCE BASELINE",ADCS-CGIC,,MINIMAL WORSENING,,5,5,,,,,,201,RETRIEVAL,168,TREATMENT,2013-10-07,183
CDISCPILOT01,QS,01-716-1308,6001,CIBIC,"EXTENT OF CHANGE, IF ANY, SINCE BASELINE",ADCS-CGIC,,MODERATE WORSENING,,6,6,,,,,,7,WEEK 6,42,TREATMENT,2013-10-07,41
CDISCPILOT01,QS,01-716-1311,6001,CIBIC,"EXTENT OF CHANGE, IF ANY, SINCE BASELINE",ADCS-CGIC,,NO CHANGE,,4,4,,,,,,8,WEEK 8,56,TREATMENT,2014-07-08,56
CDISCPILOT01,QS,01-716-1311,6002,CIBIC,"EXTENT OF CHANGE, IF ANY, SINCE BASELINE",ADCS-CGIC,,MODERATE WORSENING,,6,6,,,,,,10,WEEK 16,112,TREATMENT,2014-09-10,120
CDISCPILOT01,QS,01-716-1311,6003,CIBIC,"EXTENT OF CHANGE, IF ANY, SINCE BASELINE",ADCS-CGIC,,MINIMAL WORSENING,,5,5,,,,,,201,RETRIEVAL,168,TREATMENT,2014-11-15,186
CDISCPILOT01,QS,01-716-1364,6001,CIBIC,"EXTENT OF CHANGE, IF ANY, SINCE BASELINE",ADCS-CGIC,,NO CHANGE,,4,4,,,,,,8,WEEK 8,56,TREATMENT,2013-09-02,61
CDISCPILOT01,QS,01-716-1364,6002,CIBIC,"EXTENT OF CHANGE, IF ANY, SINCE BASELINE",ADCS-CGIC,,MINIMAL WORSENING,,5,5,,,,,,10,WEEK 16,112,TREATMENT,2013-11-07,127
CDISCPILOT01,QS,01-716-1364,6003,CIBIC,"EXTENT OF CHANGE, IF ANY, SINCE BASELINE",ADCS-CGIC,,MINIMAL WORSENING,,5,5,,,,,,12,WEEK 24,168,TREATMENT,2013-12-23,173
CDISCPILOT01,QS,01-716-1373,6001,CIBIC,"EXTENT OF CHANGE, IF ANY, SINCE BASELINE",ADCS-CGIC,,MINIMAL IMPROVEMENT,,3,3,,,,,,8,WEEK 8,56,TREATMENT,2013-02-09,58
CDISCPILOT01,QS,01-716-1373,6002,CIBIC,"EXTENT OF CHANGE, IF ANY, SINCE BASELINE",ADCS-CGIC,,MINIMAL IMPROVEMENT,,3,3,,,,,,9,WEEK 12,84,TREATMENT,2013-02-28,77
CDISCPILOT01,QS,01-716-1418,6001,CIBIC,"EXTENT OF CHANGE, IF ANY, SINCE BASELINE",ADCS-CGIC,,NO CHANGE,,4,4,,,,,,8,WEEK 8,56,TREATMENT,2013-07-11,68
CDISCPILOT01,QS,01-716-1418,6002,CIBIC,"EXTENT OF CHANGE, IF ANY, SINCE BASELINE",ADCS-CGIC,,MINIMAL IMPROVEMENT,,3,3,,,,,,10,WEEK 16,112,TREATMENT,2013-09-05,124
CDISCPILOT01,QS,01-716-1418,6003,CIBIC,"EXTENT OF CHANGE, IF ANY, SINCE BASELINE",ADCS-CGIC,,MINIMAL WORSENING,,5,5,,,,,,12,WEEK 24,168,TREATMENT,2013-11-06,186
CDISCPILOT01,QS,01-716-1441,6001,CIBIC,"EXTENT OF CHANGE, IF ANY, SINCE BASELINE",ADCS-CGIC,,NO CHANGE,,4,4,,,,,,8,WEEK 8,56,TREATMENT,2014-03-19,57
CDISCPILOT01,QS,01-716-1441,6002,CIBIC,"EXTENT OF CHANGE, IF ANY, SINCE BASELINE",ADCS-CGIC,,MINIMAL IMPROVEMENT,,3,3,,,,,,10,WEEK 16,112,TREATMENT,2014-05-19,118
CDISCPILOT01,QS,01-716-1441,6003,CIBIC,"EXTENT OF CHANGE, IF ANY, SINCE BASELINE",ADCS-CGIC,,MINIMAL WORSENING,,5,5,,,,,,12,WEEK 24,168,TREATMENT,2014-07-08,168
CDISCPILOT01,QS,01-716-1447,6001,CIBIC,"EXTENT OF CHANGE, IF ANY, SINCE BASELINE",ADCS-CGIC,,MODERATE IMPROVEMENT,,2,2,,,,,,8,WEEK 8,56,TREATMENT,2014-02-10,57
CDISCPILOT01,QS,01-716-1447,6002,CIBIC,"EXTENT OF CHANGE, IF ANY, SINCE BASELINE",ADCS-CGIC,,MODERATE IMPROVEMENT,,2,2,,,,,,10,WEEK 16,112,TREATMENT,2014-04-12,118
CDISCPILOT01,QS,01-716-1447,6003,CIBIC,"EXTENT OF CHANGE, IF ANY, SINCE BASELINE",ADCS-CGIC,,MINIMAL IMPROVEMENT,,3,3,,,,,,12,WEEK 24,168,TREATMENT,2014-06-07,174
CDISCPILOT01,QS,01-717-1004,6001,CIBIC,"EXTENT OF CHANGE, IF ANY, SINCE BASELINE",ADCS-CGIC,,MINIMAL IMPROVEMENT,,3,3,,,,,,8,WEEK 8,56,TREATMENT,2014-03-11,57
CDISCPILOT01,QS,01-717-1004,6002,CIBIC,"EXTENT OF CHANGE, IF ANY, SINCE BASELINE",ADCS-CGIC,,NO CHANGE,,4,4,,,,,,10,WEEK 16,112,TREATMENT,2014-05-06,113
CDISCPILOT01,QS,01-717-1004,6003,CIBIC,"EXTENT OF CHANGE, IF ANY, SINCE BASELINE",ADCS-CGIC,,NO CHANGE,,4,4,,,,,,12,WEEK 24,168,TREATMENT,2014-07-01,169
CDISCPILOT01,QS,01-717-1109,6001,CIBIC,"EXTENT OF CHANGE, IF ANY, SINCE BASELINE",ADCS-CGIC,,MINIMAL WORSENING,,5,5,,,,,,8,WEEK 8,56,TREATMENT,2014-03-24,57
CDISCPILOT01,QS,01-717-1109,6002,CIBIC,"EXTENT OF CHANGE, IF ANY, SINCE BASELINE",ADCS-CGIC,,MINIMAL WORSENING,,5,5,,,,,,10,WEEK 16,112,TREATMENT,2014-05-19,113
CDISCPILOT01,QS,01-717-1109,6003,CIBIC,"EXTENT OF CHANGE, IF ANY, SINCE BASELINE",ADCS-CGIC,,MODERATE WORSENING,,6,6,,,,,,12,WEEK 24,168,TREATMENT,2014-07-18,173
CDISCPILOT01,QS,01-717-1174,6001,CIBIC,"EXTENT OF CHANGE, IF ANY, SINCE BASELINE",ADCS-CGIC,,NO CHANGE,,4,4,,,,,,8,WEEK 8,56,TREATMENT,2013-03-19,57
CDISCPILOT01,QS,01-717-1174,6002,CIBIC,"EXTENT OF CHANGE, IF ANY, SINCE BASELINE",ADCS-CGIC,,MINIMAL WORSENING,,5,5,,,,,,10,WEEK 16,112,TREATMENT,2013-05-18,117
CDISCPILOT01,QS,01-717-1174,6003,CIBIC,"EXTENT OF CHANGE, IF ANY, SINCE BASELINE",ADCS-CGIC,,MINIMAL WORSENING,,5,5,,,,,,12,WEEK 24,168,TREATMENT,2013-07-07,167
CDISCPILOT01,QS,01-717-1201,6001,CIBIC,"EXTENT OF CHANGE, IF ANY, SINCE BASELINE",ADCS-CGIC,,MINIMAL WORSENING,,5,5,,,,,,8,WEEK 8,56,TREATMENT,2014-02-21,65
CDISCPILOT01,QS,01-717-1344,6001,CIBIC,"EXTENT OF CHANGE, IF ANY, SINCE BASELINE",ADCS-CGIC,,NO CHANGE,,4,4,,,,,,8,WEEK 8,56,TREATMENT,2014-03-14,63
CDISCPILOT01,QS,01-717-1357,6001,CIBIC,"EXTENT OF CHANGE, IF ANY, SINCE BASELINE",ADCS-CGIC,,MINIMAL WORSENING,,5,5,,,,,,8,WEEK 8,56,TREATMENT,2013-06-19,50
CDISCPILOT01,QS,01-717-1357,6002,CIBIC,"EXTENT OF CHANGE, IF ANY, SINCE BASELINE",ADCS-CGIC,,NO CHANGE,,4,4,,,,,,10,WEEK 16,112,TREATMENT,2013-08-21,113
CDISCPILOT01,QS,01-717-1357,6003,CIBIC,"EXTENT OF CHANGE, IF ANY, SINCE BASELINE",ADCS-CGIC,,MINIMAL WORSENING,,5,5,,,,,,12,WEEK 24,168,TREATMENT,2013-10-20,173
CDISCPILOT01,QS,01-717-1446,6001,CIBIC,"EXTENT OF CHANGE, IF ANY, SINCE BASELINE",ADCS-CGIC,,NO CHANGE,,4,4,,,,,,8,WEEK 8,56,TREATMENT,2013-10-30,60
CDISCPILOT01,QS,01-717-1446,6002,CIBIC,"EXTENT OF CHANGE, IF ANY, SINCE BASELINE",ADCS-CGIC,,NO CHANGE,,4,4,,,,,,10,WEEK 16,112,TREATMENT,2013-12-29,120
CDISCPILOT01,QS,01-717-1446,6003,CIBIC,"EXTENT OF CHANGE, IF ANY, SINCE BASELINE",ADCS-CGIC,,NO CHANGE,,4,4,,,,,,12,WEEK 24,168,TREATMENT,2014-02-16,169
CDISCPILOT01,QS,01-718-1066,6001,CIBIC,"EXTENT OF CHANGE, IF ANY, SINCE BASELINE",ADCS-CGIC,,MINIMAL WORSENING,,5,5,,,,,,4,WEEK 2,14,TREATMENT,2013-07-30,24
CDISCPILOT01,QS,01-718-1066,6002,CIBIC,"EXTENT OF CHANGE, IF ANY, SINCE BASELINE",ADCS-CGIC,,MINIMAL WORSENING,,5,5,,,,,,201,RETRIEVAL,168,TREATMENT,2014-01-13,191
CDISCPILOT01,QS,01-718-1079,6001,CIBIC,"EXTENT OF CHANGE, IF ANY, SINCE BASELINE",ADCS-CGIC,,NO CHANGE,,4,4,,,,,,7,WEEK 6,42,TREATMENT,2012-11-06,49
CDISCPILOT01,QS,01-718-1079,6002,CIBIC,"EXTENT OF CHANGE, IF ANY, SINCE BASELINE",ADCS-CGIC,,MINIMAL IMPROVEMENT,,3,3,,,,,,201,RETRIEVAL,168,TREATMENT,2013-03-05,168
CDISCPILOT01,QS,01-718-1101,6001,CIBIC,"EXTENT OF CHANGE, IF ANY, SINCE BASELINE",ADCS-CGIC,,NO CHANGE,,4,4,,,,,,8,WEEK 8,56,TREATMENT,2013-04-13,56
CDISCPILOT01,QS,01-718-1101,6002,CIBIC,"EXTENT OF CHANGE, IF ANY, SINCE BASELINE",ADCS-CGIC,,MINIMAL WORSENING,,5,5,,,,,,10,WEEK 16,112,TREATMENT,2013-06-14,118
CDISCPILOT01,QS,01-718-1101,6003,CIBIC,"EXTENT OF CHANGE, IF ANY, SINCE BASELINE",ADCS-CGIC,,NO CHANGE,,4,4,,,,,,12,WEEK 24,168,TREATMENT,2013-08-02,167
CDISCPILOT01,QS,01-718-1139,6001,CIBIC,"EXTENT OF CHANGE, IF ANY, SINCE BASELINE",ADCS-CGIC,,NO CHANGE,,4,4,,,,,,8,WEEK 8,56,TREATMENT,2013-07-14,57
CDISCPILOT01,QS,01-718-1139,6002,CIBIC,"EXTENT OF CHANGE, IF ANY, SINCE BASELINE",ADCS-CGIC,,NO CHANGE,,4,4,,,,,,10,WEEK 16,112,TREATMENT,2013-09-08,113
CDISCPILOT01,QS,01-718-1139,6003,CIBIC,"EXTENT OF CHANGE, IF ANY, SINCE BASELINE",ADCS-CGIC,,NO CHANGE,,4,4,,,,,,12,WEEK 24,168,TREATMENT,2013-11-03,169
CDISCPILOT01,QS,01-718-1150,6001,CIBIC,"EXTENT OF CHANGE, IF ANY, SINCE BASELINE",ADCS-CGIC,,NO CHANGE,,4,4,,,,,,8,WEEK 8,56,TREATMENT,2013-03-17,58
CDISCPILOT01,QS,01-718-1150,6002,CIBIC,"EXTENT OF CHANGE, IF ANY, SINCE BASELINE",ADCS-CGIC,,NO CHANGE,,4,4,,,,,,10,WEEK 16,112,TREATMENT,2013-05-10,112
CDISCPILOT01,QS,01-718-1150,6003,CIBIC,"EXTENT OF CHANGE, IF ANY, SINCE BASELINE",ADCS-CGIC,,NO CHANGE,,4,4,,,,,,12,WEEK 24,168,TREATMENT,2013-07-07,170
CDISCPILOT01,QS,01-718-1170,6001,CIBIC,"EXTENT OF CHANGE, IF ANY, SINCE BASELINE",ADCS-CGIC,,MINIMAL WORSENING,,5,5,,,,,,5,WEEK 4,28,TREATMENT,2013-11-03,49
CDISCPILOT01,QS,01-718-1170,6002,CIBIC,"EXTENT OF CHANGE, IF ANY, SINCE BASELINE",ADCS-CGIC,,NO CHANGE,,4,4,,,,,,201,RETRIEVAL,168,TREATMENT,2014-03-15,181
CDISCPILOT01,QS,01-718-1172,6001,CIBIC,"EXTENT OF CHANGE, IF ANY, SINCE BASELINE",ADCS-CGIC,,NO CHANGE,,4,4,,,,,,8,WEEK 8,56,TREATMENT,2013-11-16,57
CDISCPILOT01,QS,01-718-1172,6002,CIBIC,"EXTENT OF CHANGE, IF ANY, SINCE BASELINE",ADCS-CGIC,,NO CHANGE,,4,4,,,,,,9,WEEK 12,84,TREATMENT,2013-11-29,70
CDISCPILOT01,QS,01-718-1172,6003,CIBIC,"EXTENT OF CHANGE, IF ANY, SINCE BASELINE",ADCS-CGIC,,NO CHANGE,,4,4,,,,,,201,RETRIEVAL,168,TREATMENT,2014-03-21,182
CDISCPILOT01,QS,01-718-1250,6001,CIBIC,"EXTENT OF CHANGE, IF ANY, SINCE BASELINE",ADCS-CGIC,,NO CHANGE,,4,4,,,,,,8,WEEK 8,56,TREATMENT,2013-11-16,57
CDISCPILOT01,QS,01-718-1250,6002,CIBIC,"EXTENT OF CHANGE, IF ANY, SINCE BASELINE",ADCS-CGIC,,NO CHANGE,,4,4,,,,,,10,WEEK 16,112,TREATMENT,2014-01-11,113
CDISCPILOT01,QS,01-718-1250,6003,CIBIC,"EXTENT OF CHANGE, IF ANY, SINCE BASELINE",ADCS-CGIC,,NO CHANGE,,4,4,,,,,,11,WEEK 20,140,TREATMENT,2014-02-08,141
CDISCPILOT01,QS,01-718-1250,6004,CIBIC,"EXTENT OF CHANGE, IF ANY, SINCE BASELINE",ADCS-CGIC,,NO CHANGE,,4,4,,,,,,201,RETRIEVAL,168,TREATMENT,2014-03-08,169
CDISCPILOT01,QS,01-718-1254,6001,CIBIC,"EXTENT OF CHANGE, IF ANY, SINCE BASELINE",ADCS-CGIC,,NO CHANGE,,4,4,,,,,,8,WEEK 8,56,TREATMENT,2013-09-05,58
CDISCPILOT01,QS,01-718-1254,6002,CIBIC,"EXTENT OF CHANGE, IF ANY, SINCE BASELINE",ADCS-CGIC,,NO CHANGE,,4,4,,,,,,10,WEEK 16,112,TREATMENT,2013-10-31,114
CDISCPILOT01,QS,01-718-1254,6003,CIBIC,"EXTENT OF CHANGE, IF ANY, SINCE BASELINE",ADCS-CGIC,,NO CHANGE,,4,4,,,,,,12,WEEK 24,168,TREATMENT,2013-12-26,170
CDISCPILOT01,QS,01-718-1328,6001,CIBIC,"EXTENT OF CHANGE, IF ANY, SINCE BASELINE",ADCS-CGIC,,MINIMAL WORSENING,,5,5,,,,,,8,WEEK 8,56,TREATMENT,2013-04-04,63
CDISCPILOT01,QS,01-718-1328,6002,CIBIC,"EXTENT OF CHANGE, IF ANY, SINCE BASELINE",ADCS-CGIC,,MINIMAL WORSENING,,5,5,,,,,,9,WEEK 12,84,TREATMENT,2013-05-01,90
CDISCPILOT01,QS,01-718-1328,6003,CIBIC,"EXTENT OF CHANGE, IF ANY, SINCE BASELINE",ADCS-CGIC,,MINIMAL WORSENING,,5,5,,,,,,201,RETRIEVAL,168,TREATMENT,2013-07-24,174
CDISCPILOT01,QS,01-718-1355,6001,CIBIC,"EXTENT OF CHANGE, IF ANY, SINCE BASELINE",ADCS-CGIC,,MINIMAL WORSENING,,5,5,,,,,,8,WEEK 8,56,TREATMENT,2013-04-25,57
CDISCPILOT01,QS,01-718-1355,6002,CIBIC,"EXTENT OF CHANGE, IF ANY, SINCE BASELINE",ADCS-CGIC,,NO CHANGE,,4,4,,,,,,10,WEEK 16,112,TREATMENT,2013-06-20,113
CDISCPILOT01,QS,01-718-1355,6003,CIBIC,"EXTENT OF CHANGE, IF ANY, SINCE BASELINE",ADCS-CGIC,,NO CHANGE,,4,4,,,,,,12,WEEK 24,168,TREATMENT,2013-08-15,169
CDISCPILOT01,QS,01-718-1371,6001,CIBIC,"EXTENT OF CHANGE, IF ANY, SINCE BASELINE",ADCS-CGIC,,NO CHANGE,,4,4,,,,,,9,WEEK 12,84,TREATMENT,2013-08-08,105
CDISCPILOT01,QS,01-718-1427,6001,CIBIC,"EXTENT OF CHANGE, IF ANY, SINCE BASELINE",ADCS-CGIC,,NO CHANGE,,4,4,,,,,,8,WEEK 8,56,TREATMENT,2013-02-18,64
CDISCPILOT01,QS,01-718-1427,6002,CIBIC,"EXTENT OF CHANGE, IF ANY, SINCE BASELINE",ADCS-CGIC,,NO CHANGE,,4,4,,,,,,201,RETRIEVAL,168,TREATMENT,2013-06-03,169
