studyid,rdomain,usubjid,idvar,idvarval,qnam,qlabel,qval,qorig,qeval
CDISCPILOT01,DS,01-703-1175,DSSEQ,1,ENTCRIT,PROTOCOL ENTRY CRITERIA NOT MET,16,CRF,
CDISCPILOT01,DS,01-705-1382,DSSEQ,1,ENTCRIT,PROTOCOL ENTRY CRITERIA NOT MET,25,CRF,
CDISCPILOT01,DS,01-708-1372,DSSEQ,1,ENTCRIT,PROTOCOL ENTRY CRITERIA NOT MET,16,CRF,
